time,ax,ay,az,atotal
0.0042171478271484375,-0.29,-0.52,-0.14,0.61
0.007395267486572266,-0.3,-0.48,-0.18,0.59
0.009052276611328125,-0.3,-0.4,-0.25,0.55
0.01044321060180664,-0.3,-0.33,-0.33,0.55
0.011649131774902344,-0.29,-0.28,-0.34,0.52
0.013543128967285156,-0.27,-0.29,-0.32,0.5
0.015463113784790039,-0.22,-0.3,-0.28,0.46
0.042997121810913086,-0.15,-0.31,-0.29,0.45
0.04392719268798828,-0.09,-0.32,-0.31,0.45
0.04865908622741699,-0.04,-0.33,-0.32,0.46
0.04966020584106445,-0.05,-0.32,-0.3,0.44
0.06538724899291992,-0.05,-0.3,-0.23,0.38
0.06657719612121582,-0.08,-0.3,-0.19,0.36
0.08213520050048828,-0.09,-0.29,-0.15,0.33
0.08330821990966797,-0.09,-0.27,-0.11,0.3
0.09900617599487305,-0.09,-0.21,-0.04,0.23
0.10201406478881836,-0.08,-0.16,0.03,0.18
0.12819814682006836,-0.06,-0.16,0.08,0.18
0.1289520263671875,-0.01,-0.15,0.05,0.15
0.12984323501586914,0.06,-0.14,-0.02,0.15
0.1494612693786621,0.1,-0.11,-0.14,0.2
0.15077614784240723,0.13,-0.11,-0.28,0.32
0.16534113883972168,0.16,-0.08,-0.32,0.36
0.16692018508911133,0.19,-0.06,-0.32,0.37
0.18329429626464844,0.21,-0.06,-0.3,0.37
0.184906005859375,0.24,-0.03,-0.23,0.33
0.2016620635986328,0.23,-0.02,-0.22,0.31
0.2182760238647461,0.19,0.02,-0.19,0.26
0.2192530632019043,0.17,0.06,-0.2,0.26
0.22067618370056152,0.17,0.12,-0.26,0.33
0.22247314453125,0.17,0.16,-0.33,0.4
0.22384119033813477,0.2,0.16,-0.38,0.45
0.22535109519958496,0.24,0.14,-0.35,0.44
0.22706222534179688,0.25,0.16,-0.3,0.42
0.2288990020751953,0.23,0.19,-0.23,0.37
0.2306070327758789,0.18,0.22,-0.15,0.32
0.23284006118774414,0.17,0.24,-0.08,0.3
0.2593650817871094,0.15,0.2,-0.05,0.25
0.2601289749145508,0.14,0.16,-0.03,0.21
0.2608041763305664,0.15,0.13,-0.04,0.2
0.2615201473236084,0.16,0.15,-0.05,0.22
0.26560401916503906,0.18,0.23,-0.04,0.29
0.2827951908111572,0.17,0.26,0.02,0.31
0.2841053009033203,0.16,0.29,0.0,0.33
0.29850316047668457,0.13,0.3,-0.02,0.32
0.299685001373291,0.1,0.22,-0.08,0.25
0.31534814834594727,0.09,0.2,-0.14,0.26
0.3272120952606201,0.1,0.19,-0.11,0.24
0.3321061134338379,0.12,0.18,-0.15,0.26
0.33324217796325684,0.16,0.21,-0.06,0.27
0.3350381851196289,0.19,0.2,-0.02,0.27
0.33627820014953613,0.2,0.18,-0.01,0.26
0.3376150131225586,0.15,0.12,0.05,0.19
0.3392152786254883,0.11,0.01,0.17,0.2
0.3407402038574219,0.09,-0.03,0.22,0.23
0.3426222801208496,0.1,0.0,0.35,0.36
0.3451521396636963,0.14,0.05,0.46,0.48
0.3553180694580078,0.23,0.09,0.47,0.53
0.3560662269592285,0.3,0.15,0.43,0.54
0.36689329147338867,0.34,0.21,0.37,0.54
0.3676111698150635,0.34,0.22,0.26,0.48
0.38243532180786133,0.28,0.19,0.17,0.37
0.3833601474761963,0.22,0.18,0.1,0.3
0.39832210540771484,0.23,0.22,0.05,0.32
0.39911913871765137,0.24,0.32,0.07,0.4
0.416823148727417,0.25,0.47,0.26,0.59
0.4200100898742676,0.24,0.54,0.58,0.82
0.44185924530029297,0.09,0.19,0.6,0.63
0.4426093101501465,0.31,0.4,0.76,0.91
0.4503941535949707,0.54,0.77,0.81,1.24
0.45114803314208984,0.52,0.71,0.52,1.02
0.4659461975097656,0.56,0.57,0.45,0.91
0.46713924407958984,0.46,0.15,0.31,0.57
0.4824552536010742,0.2,-0.18,-0.05,0.27
0.48371124267578125,0.19,-0.12,0.09,0.24
0.49861621856689453,0.24,-0.03,0.51,0.56
0.5105509757995605,0.28,-0.09,0.95,0.99
0.5160322189331055,0.28,-0.27,1.3,1.35
0.5168790817260742,0.29,-0.48,1.64,1.73
0.518517017364502,0.27,-0.65,1.89,2.01
0.5203289985656738,0.18,-0.8,2.09,2.24
0.522158145904541,0.1,-1.06,2.22,2.46
0.5237622261047363,0.06,-1.24,2.16,2.49
0.5256330966949463,0.08,-1.3,1.98,2.36
0.5274341106414795,0.07,-1.31,1.84,2.25
0.5302209854125977,-0.05,-1.35,1.66,2.14
0.5419011116027832,-0.21,-1.36,1.5,2.03
0.5493021011352539,-0.4,-1.3,1.43,1.97
0.550274133682251,-0.51,-1.16,1.36,1.85
0.5518922805786133,-0.56,-1.21,1.16,1.76
0.5539779663085938,-0.48,-1.33,1.01,1.73
0.5556240081787109,-0.31,-1.38,0.81,1.62
0.5573651790618896,-0.51,-1.33,1.52,2.08
0.5590240955352783,-2.88,-1.31,6.61,7.32
0.5605802536010742,-3.36,-1.08,3.93,5.28
0.5637311935424805,-1.64,-0.2,-0.41,1.7
0.5752501487731934,-1.24,0.18,-0.15,1.26
0.5837502479553223,-1.36,0.14,-0.95,1.66
0.5849661827087402,-1.1,0.15,-1.02,1.5
0.5866742134094238,-0.73,-0.05,-1.42,1.59
0.5883991718292236,-0.22,-0.25,-1.89,1.91
0.5901401042938232,0.12,-0.4,-1.21,1.28
0.5919270515441895,0.36,-0.71,-0.36,0.87
0.5939021110534668,0.5,-0.97,0.42,1.16
0.5956101417541504,0.49,-1.18,0.75,1.48
0.5984401702880859,0.34,-1.23,0.55,1.38
0.6107661724090576,0.08,-1.0,-0.04,1.0
0.6161670684814453,-0.22,-0.65,-0.59,0.9
0.6168322563171387,-0.45,-0.31,-0.83,0.99
0.6174881458282471,-0.5,-0.12,-0.89,1.02
0.633216142654419,-0.46,-0.1,-0.79,0.91
0.634119987487793,-0.48,-0.12,-0.26,0.55
0.651698112487793,-0.55,-0.14,0.38,0.68
0.6526350975036621,-0.47,-0.16,0.6,0.77
0.6652603149414062,-0.21,-0.18,-0.01,0.27
0.6668641567230225,0.01,-0.22,-0.79,0.82
0.6896152496337891,0.11,-0.48,-2.4,2.44
0.6903972625732422,0.05,-0.25,-2.04,2.05
0.7011451721191406,0.07,-0.2,-1.05,1.07
0.7019941806793213,0.29,-0.46,-0.33,0.63
0.7164139747619629,0.5,-0.74,0.22,0.91
0.717231273651123,0.58,-0.95,0.88,1.41
0.7330160140991211,0.61,-1.28,1.33,1.94
0.7339391708374023,0.42,-1.37,1.22,1.88
0.7483162879943848,0.41,-0.82,-0.21,0.94
0.7498691082000732,0.41,-0.43,-2.69,2.75
0.7729439735412598,0.19,-0.13,-3.38,3.38
0.7737071514129639,-0.22,0.27,-1.93,1.96
0.7839541435241699,-0.55,0.3,-0.99,1.17
0.784785270690918,-0.96,-0.23,-1.31,1.64
0.8011059761047363,-1.14,-1.35,-0.87,1.96
0.8020191192626953,-0.39,-1.21,0.38,1.32
0.8152852058410645,0.22,-0.82,-1.4,1.63
0.8163690567016602,0.05,-0.73,-2.07,2.19
0.8319461345672607,-0.04,-0.9,-2.59,2.74
0.8343141078948975,-0.1,-0.69,-3.26,3.33
0.8586630821228027,-0.14,-0.27,-3.53,3.54
0.8594892024993896,0.1,-0.04,-3.52,3.52
0.8674581050872803,0.22,0.03,-3.25,3.25
0.8686180114746094,0.16,0.19,-3.06,3.07
0.8834071159362793,0.01,0.43,-3.06,3.09
0.8846890926361084,-0.2,0.63,-3.36,3.42
0.8981900215148926,-0.27,0.84,-3.96,4.05
0.8993260860443115,-0.21,0.89,-4.19,4.28
0.9149181842803955,-0.1,0.83,-4.04,4.12
0.9173221588134766,-0.08,0.66,-3.29,3.35
0.9423670768737793,-1.21,-0.67,-3.31,3.58
0.9433691501617432,-1.55,-0.67,-4.19,4.51
0.9522552490234375,-1.17,0.16,-4.91,5.05
0.9533982276916504,-0.3,1.16,-5.67,5.79
0.9659953117370605,-0.48,1.12,-5.72,5.84
0.9672112464904785,-2.89,-1.37,-5.64,6.48
0.981931209564209,-4.79,-4.8,-5.64,8.82
0.9831643104553223,-3.72,-6.49,-5.1,9.05
0.9987001419067383,-1.89,-6.86,-4.64,8.49
1.0010643005371094,-1.34,-8.1,-6.02,10.18
1.0268912315368652,-1.22,-10.08,-8.99,13.56
1.0282821655273438,-1.94,-12.15,-11.22,16.65
1.029482126235962,-2.25,-11.81,-12.07,17.03
1.0338101387023926,-3.12,-10.58,-12.52,16.68
1.0347480773925781,-3.51,-10.33,-12.84,16.84
1.0505971908569336,-2.0,-11.15,-13.09,17.31
1.0517849922180176,0.19,-12.63,-12.85,18.01
1.0527491569519043,1.79,-14.41,-12.08,18.88
1.0659191608428955,1.42,-15.62,-11.98,19.73
1.0681331157684326,-0.76,-15.91,-12.47,20.22
1.0940301418304443,-4.32,-15.48,-13.27,20.84
1.0950851440429688,-8.69,-15.29,-13.46,22.14
1.0997600555419922,-14.3,-15.39,-14.38,25.45
1.1009681224822998,-19.98,-17.83,-13.88,30.16
1.118767261505127,-25.96,-18.68,-4.77,32.33
1.1199760437011719,-34.56,-14.09,7.45,38.05
1.1325461864471436,-43.34,-12.81,16.27,48.03
1.1340479850769043,-50.13,-10.36,19.06,54.62
1.1489582061767578,-53.51,-9.1,21.89,58.52
1.1521382331848145,-54.67,-8.43,29.64,62.75
1.1799812316894531,-56.33,-5.17,35.2,66.62
1.181124210357666,-55.15,-2.01,35.46,65.59
1.183730125427246,-50.79,0.93,34.97,61.67
1.2015671730041504,-46.24,5.26,35.45,58.5
1.203017234802246,-43.1,9.0,34.6,55.99
1.215898036956787,-41.18,12.26,32.51,53.87
1.2171382904052734,-40.68,14.9,30.9,53.21
1.2323482036590576,-40.63,15.81,29.83,52.82
1.2341701984405518,-38.94,14.04,28.78,50.41
1.25126314163208,-35.67,9.79,27.38,46.02
1.2669851779937744,-31.83,4.01,26.49,41.6
1.2679831981658936,-27.72,-2.05,24.86,37.29
1.2695221900939941,-25.27,-7.51,22.44,34.61
1.2715492248535156,-25.05,-12.75,20.92,35.03
1.2732131481170654,-26.1,-18.4,21.13,38.29
1.2749931812286377,-26.85,-24.05,22.27,42.37
1.27671217918396,-26.94,-28.87,23.08,45.73
1.27829909324646,-27.76,-32.93,24.12,49.36
1.2795209884643555,-28.79,-35.27,24.58,51.73
1.2819201946258545,-30.29,-35.48,23.51,52.24
1.2935562133789062,-32.33,-35.6,20.84,52.41
1.2999811172485352,-34.08,-36.83,17.49,53.13
1.3008322715759277,-35.19,-39.8,13.83,54.89
1.3021371364593506,-35.9,-43.26,10.28,57.14
1.3036770820617676,-36.69,-45.79,7.81,59.19
1.3052172660827637,-37.81,-47.43,7.49,61.11
1.3071670532226562,-38.69,-47.65,8.33,61.94
1.3083741664886475,-38.15,-44.61,9.0,59.38
1.309718132019043,-36.23,-40.47,8.78,55.02
1.31203031539917,-33.04,-38.52,6.27,51.13
1.3237462043762207,-28.71,-38.07,1.12,47.69
1.324808120727539,-21.13,-37.89,-4.27,43.59
1.3338241577148438,-8.03,-39.6,-8.22,41.23
1.3346600532531738,9.31,-45.67,-8.54,47.38
1.3490490913391113,24.19,-55.35,-4.56,60.57
1.3499701023101807,34.38,-62.93,6.02,71.96
1.3660340309143066,37.35,-59.84,21.14,73.63
1.3668723106384277,34.58,-51.36,32.89,70.1
1.3821251392364502,34.9,-43.35,36.72,66.67
1.3837642669677734,36.68,-38.36,35.76,63.99
1.4099581241607666,36.29,-35.76,36.15,62.47
1.4107401371002197,34.55,-33.89,36.45,60.58
1.4173760414123535,32.67,-34.33,33.62,58.1
1.4180612564086914,29.27,-36.18,28.57,54.6
1.4342041015625,24.08,-37.17,22.93,49.87
1.4351301193237305,18.27,-37.36,17.41,45.08
1.448979139328003,13.09,-38.62,11.89,42.47
1.4498982429504395,7.61,-40.64,6.78,41.89
1.4654991626739502,1.97,-44.12,2.97,44.26
1.4670491218566895,-4.71,-46.64,-0.34,46.87
1.493335247039795,-11.46,-46.0,-2.04,47.44
1.4941182136535645,-16.84,-46.21,-2.42,49.24
1.5004329681396484,-21.54,-46.26,-3.45,51.14
1.5012791156768799,-23.95,-44.28,-2.66,50.41
1.516484260559082,-25.58,-42.73,-1.19,49.81
1.517320156097412,-26.86,-43.73,-0.41,51.32
1.5323352813720703,-27.38,-43.95,0.0,51.78
1.533257007598877,-28.35,-42.77,0.2,51.31
1.5502290725708008,-29.19,-42.04,1.63,51.2
1.5521070957183838,-28.98,-39.43,2.42,48.99
1.5768990516662598,-27.93,-37.65,1.51,46.9
1.577728271484375,-26.57,-35.55,0.47,44.38
1.5846781730651855,-25.31,-32.55,-0.03,41.23
1.5855202674865723,-24.28,-30.35,1.08,38.88
1.5995841026306152,-22.43,-27.24,3.26,35.43
1.6005029678344727,-19.68,-23.33,5.14,30.95
1.6163620948791504,-16.87,-21.33,5.69,27.78
1.6175451278686523,-15.36,-21.13,4.54,26.51
1.6329131126403809,-14.98,-19.92,2.2,25.02
1.635200023651123,-18.52,-20.33,-1.56,27.54
1.6625890731811523,-24.93,-24.71,-2.71,35.2
1.6633219718933105,-27.76,-24.81,-3.03,37.35
1.6675331592559814,-29.13,-17.68,-6.88,34.76
1.6854772567749023,-34.86,-10.45,-13.7,38.88
1.686777114868164,-44.61,-4.01,-23.12,50.4
1.6998181343078613,-54.4,1.65,-30.19,62.23
1.7011361122131348,-61.79,5.4,-33.9,70.68
1.7168550491333008,-64.67,10.26,-35.61,74.53
1.7180871963500977,-65.03,12.92,-35.28,75.1
1.7461252212524414,-63.98,12.6,-32.8,72.99
1.7604601383209229,-60.75,13.2,-33.01,70.38
1.761484146118164,-56.99,16.73,-35.62,69.25
1.7629990577697754,-53.75,22.76,-36.38,68.77
1.763733148574829,-50.47,27.12,-37.62,68.54
1.7757720947265625,-47.11,29.21,-36.83,66.55
1.776869297027588,-44.16,28.04,-32.8,61.74
1.7837491035461426,-40.9,25.38,-27.43,55.4
1.7845981121063232,-36.88,21.59,-23.38,48.71
1.8006742000579834,-32.95,17.95,-19.71,42.38
1.8024251461029053,-29.78,14.86,-15.83,36.85
1.8376569747924805,-27.83,10.54,-17.08,34.31
1.8387422561645508,-28.28,6.51,-19.3,34.85
1.8394412994384766,-30.87,0.79,-19.14,36.33
1.8504972457885742,-33.77,-6.48,-17.76,38.7
1.8513669967651367,-35.6,-13.67,-15.12,41.02
1.8678860664367676,-36.63,-19.78,-11.67,43.23
1.8687901496887207,-37.72,-24.47,-8.62,45.78
1.8825621604919434,-39.62,-28.96,-4.76,49.3
1.8834199905395508,-40.85,-33.05,-2.22,52.59
1.89982008934021,-41.15,-36.38,-1.69,54.95
1.9112820625305176,-40.35,-38.65,-2.38,55.92
1.9171671867370605,-39.22,-40.33,-4.01,56.39
1.9274182319641113,-38.8,-42.56,-5.25,57.83
1.9294462203979492,-38.66,-44.48,-6.48,59.28
1.9307451248168945,-38.65,-47.47,-7.93,61.72
1.9316661357879639,-38.96,-50.34,-8.19,64.18
1.9506492614746094,-39.85,-52.62,-7.17,66.39
1.9516010284423828,-40.6,-54.21,-6.95,68.08
1.965956211090088,-40.12,-54.56,-7.78,68.16
1.9677481651306152,-38.79,-54.79,-9.11,67.74
1.9925951957702637,-36.35,-56.06,-10.48,67.63
1.9934320449829102,-32.15,-55.92,-10.17,65.3
1.9943079948425293,-24.25,-55.56,-7.01,61.02
1.9950180053710938,-12.16,-57.33,-3.79,58.72
2.0005240440368652,-1.49,-61.82,1.15,61.84
2.0107901096343994,6.4,-66.66,8.51,67.5
2.017693042755127,15.36,-69.82,16.05,73.26
2.0185511112213135,26.18,-68.47,28.24,78.55
2.034057140350342,33.74,-62.91,40.66,82.15
2.0356802940368652,37.43,-56.84,45.3,81.75
2.070456027984619,41.01,-53.43,43.92,80.4
2.071521282196045,44.95,-51.19,42.26,80.16
2.072167158126831,48.35,-49.19,39.92,79.69
2.083625316619873,49.15,-50.16,35.32,78.6
2.084472179412842,46.41,-54.06,28.35,76.68
2.1007890701293945,37.79,-56.7,22.67,71.81
2.1017260551452637,23.8,-57.71,17.23,64.75
2.116387128829956,8.68,-58.06,10.14,59.57
2.1172451972961426,-4.4,-58.84,2.82,59.07
2.133129119873047,-14.16,-59.55,-2.97,61.28
2.1446261405944824,-20.6,-58.79,-6.46,62.62
2.1506481170654297,-24.37,-56.31,-8.64,61.96
2.1609392166137695,-25.72,-52.49,-9.86,59.27
2.1627020835876465,-26.15,-49.49,-9.55,56.78
2.164468288421631,-26.25,-48.34,-7.62,55.53
2.165135145187378,-26.01,-48.58,-4.68,55.3
2.1843791007995605,-26.34,-49.83,-1.94,56.39
2.185310125350952,-27.84,-52.01,0.64,58.99
2.199341297149658,-29.51,-54.75,1.31,62.21
2.200996160507202,-30.24,-56.2,0.89,63.82
2.2373881340026855,-30.53,-56.01,0.47,63.79
2.2385871410369873,-30.51,-52.96,-0.41,61.12
2.2392382621765137,-30.47,-48.31,-2.23,57.15
2.249620199203491,-29.69,-42.23,-4.62,51.82
2.2504992485046387,-28.95,-36.55,-7.05,47.15
2.268455982208252,-27.01,-31.12,-7.07,41.8
2.2693681716918945,-24.81,-25.42,-5.52,35.94
2.282625198364258,-23.95,-20.88,-3.98,32.02
2.283477306365967,-23.79,-17.34,-2.52,29.54
2.299319267272949,-25.17,-16.21,-1.76,29.98
2.3107261657714844,-26.88,-15.79,-3.03,31.32
2.317167282104492,-29.18,-16.62,-7.41,34.38
2.327838182449341,-32.51,-14.46,-13.18,37.94
2.3292341232299805,-37.26,-6.36,-17.24,41.54
2.331282138824463,-43.21,1.86,-20.8,47.99
2.331947088241577,-48.79,6.38,-24.02,54.75
2.3505001068115234,-53.51,9.13,-24.02,59.36
2.3514132499694824,-57.15,11.79,-22.43,62.51
2.366452217102051,-60.4,15.87,-20.99,65.88
2.368112087249756,-63.77,20.22,-20.44,69.95
2.4047980308532715,-66.96,22.67,-19.13,73.23
2.40622615814209,-69.47,18.54,-18.78,74.31
2.407025098800659,-70.07,13.61,-16.74,73.31
2.418112277984619,-65.09,12.01,-17.12,68.36
2.4189910888671875,-55.22,13.19,-21.14,60.58
2.4336800575256348,-45.42,15.01,-23.95,53.49
2.434525966644287,-39.45,13.73,-26.7,49.57
2.4499902725219727,-36.72,11.01,-26.4,46.54
2.450899124145508,-34.45,8.68,-23.24,42.45
2.4670541286468506,-32.12,6.3,-19.17,37.93
2.479001998901367,-30.49,3.67,-14.86,34.11
2.4841370582580566,-29.49,0.46,-13.21,32.31
2.4947731494903564,-29.88,-2.55,-12.92,32.65
2.496572971343994,-31.55,-6.65,-11.93,34.37
2.497511148452759,-33.23,-11.49,-10.82,36.78
2.4989542961120605,-34.84,-17.08,-10.22,40.12
2.4996023178100586,-36.58,-23.75,-9.46,44.62
2.517730236053467,-37.85,-30.89,-8.01,49.5
2.518738269805908,-37.87,-37.43,-5.87,53.56
2.5335702896118164,-36.07,-41.3,-3.83,54.96
2.5451622009277344,-33.81,-43.78,-3.56,55.42
2.550656318664551,-31.97,-46.51,-4.32,56.6
2.5610291957855225,-30.49,-48.63,-5.18,57.63
2.5629100799560547,-29.96,-49.0,-5.53,57.69
2.56478214263916,-30.89,-48.37,-5.5,57.65
2.5654470920562744,-32.3,-49.08,-6.07,59.06
2.583984136581421,-33.37,-49.78,-7.06,60.34
2.5849320888519287,-34.87,-50.89,-7.1,62.09
2.6000771522521973,-36.3,-53.09,-6.7,64.66
2.6017541885375977,-37.01,-54.62,-5.97,66.24
2.637402057647705,-36.51,-55.88,-6.22,67.03
2.638521194458008,-35.28,-56.55,-8.64,67.21
2.63911509513855,-33.76,-56.24,-11.46,66.58
2.6507251262664795,-27.63,-56.0,-13.46,63.87
2.651585102081299,-15.13,-55.61,-14.55,59.43
2.6673431396484375,-2.16,-56.21,-10.48,57.21
2.6682662963867188,7.57,-60.68,-2.68,61.2
2.683648109436035,15.13,-65.97,5.0,67.86
2.684521198272705,23.35,-66.54,13.03,71.71
2.700742244720459,30.69,-61.98,23.75,73.12
2.712259292602539,34.38,-54.88,33.94,73.11
2.7191410064697266,38.23,-48.49,36.71,71.83
2.731940269470215,43.91,-44.84,34.2,71.47
2.733260154724121,50.15,-42.41,29.0,71.79
2.7503952980041504,55.32,-39.36,24.72,72.25
2.760906219482422,57.81,-40.1,18.37,72.71
2.768296241760254,56.62,-43.11,11.42,72.07
2.7691431045532227,50.1,-46.24,7.42,68.57
2.784231185913086,38.29,-49.27,5.57,62.64
2.78611421585083,23.07,-51.6,4.15,56.67
2.821094036102295,7.76,-52.51,2.9,53.15
2.8221592903137207,-5.13,-53.58,2.92,53.9
2.8228421211242676,-15.41,-55.17,1.09,57.29
2.834321975708008,-23.05,-55.89,-2.61,60.51
2.8351681232452393,-27.91,-54.67,-5.99,61.67
2.850947141647339,-29.7,-51.29,-8.18,59.83
2.8518640995025635,-29.54,-46.76,-8.23,55.91
2.8667311668395996,-29.48,-44.65,-6.83,53.93
2.8676300048828125,-28.99,-44.87,-6.57,53.82
2.8837730884552,-28.77,-46.85,-6.62,55.37
2.8959591388702393,-29.22,-49.41,-5.53,57.66
2.900510311126709,-29.48,-52.75,-4.53,60.59
2.910722255706787,-28.73,-54.51,-4.29,61.76
2.912731170654297,-27.88,-53.1,-3.84,60.09
2.9139962196350098,-27.93,-50.31,-3.75,57.66
2.9154162406921387,-28.52,-46.01,-4.38,54.3
2.916288137435913,-29.23,-41.46,-4.24,50.9
2.934889316558838,-29.39,-38.43,-5.27,48.66
2.935945987701416,-28.59,-35.42,-5.83,45.89
2.950406074523926,-26.99,-32.72,-6.06,42.84
2.9623003005981445,-24.51,-29.12,-5.28,38.42
2.967661142349243,-22.12,-25.8,-5.18,34.37
2.968506097793579,-21.6,-22.16,-5.73,31.47
2.9691410064697266,-23.43,-19.91,-4.97,31.14
2.9845170974731445,-27.2,-21.95,-3.94,35.17
2.9856209754943848,-29.7,-20.93,-4.14,36.56
3.0005459785461426,-33.06,-22.24,-9.76,41.02
3.0012922286987305,-38.2,-21.16,-20.03,48.04
3.016935110092163,-44.48,-11.81,-29.06,54.42
3.01859712600708,-52.2,-2.03,-35.71,63.27
3.0549991130828857,-59.23,5.1,-35.66,69.32
3.056305170059204,-62.91,13.24,-32.75,72.14
3.056950092315674,-65.01,19.17,-29.32,73.84
3.0707221031188965,-65.06,22.92,-30.35,75.36
3.0715789794921875,-66.02,24.46,-35.01,78.62
3.0849952697753906,-69.44,27.08,-38.53,83.9
3.085980176925659,-71.55,29.18,-45.88,89.86
3.1005301475524902,-67.78,28.63,-50.85,89.44
3.1013760566711426,-58.7,25.38,-44.71,78.03
3.117279052734375,-49.21,19.74,-30.36,61.09
3.1288890838623047,-41.49,12.17,-21.19,48.15
3.1338043212890625,-36.31,7.36,-18.92,41.59
3.1345410346984863,-34.17,3.45,-18.01,38.77
3.1352462768554688,-32.54,0.65,-15.87,36.2
3.1360082626342773,-30.04,-0.6,-11.82,32.28
3.136552095413208,-28.39,-1.82,-6.98,29.29
3.1509571075439453,-28.93,-3.52,-4.58,29.5
3.1517741680145264,-31.07,-6.0,-4.18,31.91
3.1674842834472656,-34.49,-9.65,-6.28,36.36
3.169126033782959,-38.59,-15.12,-9.32,42.48
3.194671154022217,-41.7,-22.25,-9.56,48.22
3.1955161094665527,-42.1,-29.08,-8.87,51.93
3.2004711627960205,-40.46,-34.72,-8.65,54.01
3.201137065887451,-38.35,-38.91,-8.39,55.27
3.2178661823272705,-36.58,-42.19,-8.46,56.47
3.2283592224121094,-35.01,-45.26,-8.33,57.82
3.2342820167541504,-33.71,-47.6,-7.43,58.79
3.2349741458892822,-32.35,-48.26,-6.75,58.49
3.250990152359009,-31.35,-48.39,-6.67,58.04
3.2527222633361816,-31.69,-49.04,-7.29,58.84
3.2885780334472656,-32.83,-49.57,-7.95,59.98
3.289736270904541,-34.75,-51.05,-8.31,62.31
3.290369987487793,-35.87,-52.75,-8.54,64.35
3.301267147064209,-35.65,-53.74,-8.73,65.07
3.3021039962768555,-34.47,-53.99,-8.54,64.62
3.3177223205566406,-33.27,-54.67,-8.75,64.59
3.3186659812927246,-31.02,-54.81,-9.19,63.64
3.3353431224823,-26.91,-53.27,-8.99,60.35
3.336299180984497,-19.23,-50.36,-6.75,54.32
3.360591173171997,-8.76,-47.43,-4.43,48.43
3.385859966278076,2.33,-49.22,-0.78,49.28
3.3871712684631348,11.6,-55.81,4.31,57.16
3.387845039367676,20.21,-58.68,15.82,64.04
3.4010772705078125,30.37,-55.98,25.54,68.61
3.4019789695739746,37.02,-50.15,30.67,69.47
3.4186041355133057,37.89,-44.44,33.87,67.51
3.419528007507324,37.95,-41.08,37.1,67.11
3.4341471195220947,41.55,-40.48,37.71,69.18
3.43507719039917,46.84,-41.01,36.31,72.07
3.4605371952056885,50.23,-43.44,32.41,73.89
3.4881651401519775,50.91,-46.56,25.35,73.5
3.50030517578125,46.54,-49.06,17.69,69.89
3.5140280723571777,36.76,-50.29,11.58,63.35
3.515109062194824,23.38,-50.84,6.65,56.35
3.516611099243164,10.31,-51.26,2.19,52.33
3.5173161029815674,-0.29,-51.99,-2.07,52.03
3.5345582962036133,-8.69,-52.09,-5.28,53.07
3.5354743003845215,-15.09,-51.93,-7.03,54.53
3.5508952140808105,-19.01,-50.88,-7.66,54.85
3.5524301528930664,-20.38,-48.41,-8.07,53.14
3.587376117706299,-20.54,-45.06,-8.31,50.21
3.588423252105713,-20.71,-42.44,-7.2,47.76
3.5890212059020996,-20.93,-42.01,-6.48,47.38
3.6016061305999756,-21.13,-43.15,-6.27,48.45
3.6024491786956787,-21.64,-46.14,-5.2,51.22
3.617730140686035,-21.41,-49.73,-3.62,54.26
3.6186511516571045,-20.57,-52.43,-2.47,56.37
3.633735179901123,-19.99,-53.5,-2.09,57.15
3.634695053100586,-20.28,-52.72,-2.39,56.53
3.6508021354675293,-22.19,-50.2,-3.21,54.97
3.6627511978149414,-24.51,-47.12,-4.51,53.3
3.6682863235473633,-25.59,-43.98,-6.3,51.27
3.679143190383911,-25.81,-41.07,-6.97,49.0
3.6810712814331055,-25.93,-36.63,-6.37,45.32
3.681845188140869,-26.18,-31.88,-5.14,41.57
3.6949830055236816,-25.57,-28.64,-3.62,38.56
3.6961801052093506,-23.7,-25.84,-2.52,35.15
3.7013251781463623,-21.42,-22.58,-2.54,31.22
3.7019762992858887,-21.96,-22.9,-4.6,32.05
3.7177252769470215,-27.14,-25.59,-6.53,37.86
3.7296061515808105,-32.03,-24.9,-8.09,41.36
3.734611988067627,-35.97,-21.58,-10.92,43.34
3.745633125305176,-41.16,-16.47,-14.62,46.68
3.7476401329040527,-48.41,-9.95,-20.4,53.46
3.7484521865844727,-57.5,-2.93,-25.24,62.86
3.7609221935272217,-65.18,1.83,-27.78,70.87
3.763984203338623,-69.61,8.4,-26.02,74.78
3.7742671966552734,-71.38,13.22,-21.47,75.7
3.7838892936706543,-71.5,14.62,-18.43,75.27
3.794877052307129,-71.54,14.28,-17.04,74.91
3.826735019683838,-69.82,16.46,-18.18,74.0
3.8281171321868896,-67.09,23.32,-19.82,73.74
3.8288071155548096,-63.1,29.22,-17.99,71.82
3.8345632553100586,-57.51,32.3,-14.58,67.55
3.845247268676758,-51.46,30.53,-13.64,61.36
3.853816032409668,-45.89,24.1,-13.54,53.57
3.8641061782836914,-41.45,17.28,-11.69,46.4
3.8736910820007324,-36.54,10.72,-11.59,39.8
3.8837051391601562,-31.66,6.52,-10.7,34.04
3.894958019256592,-27.69,3.54,-9.57,29.51
3.914741039276123,-25.69,0.97,-9.15,27.28
3.916220188140869,-26.33,-1.77,-8.64,27.76
3.924170970916748,-28.78,-5.87,-8.35,30.53
3.933901309967041,-31.93,-11.29,-8.2,34.84
3.944082260131836,-34.87,-17.22,-8.62,39.83
3.953573226928711,-36.32,-22.2,-9.57,43.62
3.9640111923217773,-35.84,-26.24,-11.31,45.83
3.973628044128418,-35.17,-30.73,-12.79,48.42
3.983948230743408,-35.53,-35.75,-12.99,52.04
3.995394229888916,-36.47,-40.66,-12.36,56.0
4.014264106750488,-36.89,-44.67,-10.94,58.95
4.015844106674194,-36.51,-47.58,-9.1,60.66
4.023530006408691,-35.31,-48.92,-7.44,60.78
4.033802032470703,-33.95,-50.24,-6.93,61.03
4.044154167175293,-32.67,-51.26,-6.87,61.17
4.053768157958984,-31.44,-51.35,-7.72,60.7
4.063860177993774,-30.8,-51.59,-9.24,60.79
4.075415134429932,-30.92,-52.1,-10.68,61.51
4.083866119384766,-31.6,-52.03,-12.08,62.06
4.094464302062988,-33.02,-52.23,-13.14,63.17
4.114432096481323,-35.56,-52.82,-12.89,64.96
4.115101099014282,-36.93,-53.49,-12.6,66.21
4.1278910636901855,-35.34,-53.39,-12.49,65.23
4.13313102722168,-30.63,-51.18,-11.19,60.68
4.143420219421387,-21.1,-44.32,-5.82,49.43
4.153357028961182,-7.06,-38.21,-1.3,38.87
4.163318157196045,4.3,-50.23,-1.54,50.43
4.173082113265991,11.7,-69.82,2.96,70.85
4.183173179626465,26.55,-66.26,17.59,73.51
4.194455146789551,41.13,-58.36,29.84,77.38
4.214078187942505,41.78,-59.34,42.65,84.17
4.2286810874938965,41.33,-55.07,51.5,85.98
4.229862213134766,44.1,-53.67,47.98,84.42
4.2328619956970215,47.5,-54.06,41.49,83.06
4.243486166000366,46.83,-55.23,33.61,79.83
4.255288124084473,42.86,-55.46,24.84,74.36
4.263020038604736,36.18,-55.05,15.29,67.62
4.273505210876465,26.84,-53.85,7.22,60.59
4.283092975616455,16.04,-52.79,3.11,55.26
4.294136047363281,5.76,-52.28,0.89,52.6
4.333712100982666,-2.72,-51.94,-1.24,52.02
4.33544921875,-9.06,-50.92,-2.71,51.79
4.336212158203125,-13.45,-48.73,-2.66,50.62
4.336920261383057,-15.81,-46.36,-3.26,49.09
4.352379322052002,-17.07,-44.54,-4.13,47.87
4.3540940284729,-17.49,-43.24,-5.44,46.95
4.368730068206787,-17.39,-41.94,-6.92,45.92
4.372753143310547,-17.56,-41.56,-8.2,45.85
4.383090972900391,-17.97,-42.8,-8.72,47.23
4.393830299377441,-18.85,-44.86,-8.4,49.37
4.413812160491943,-19.53,-46.84,-6.52,51.16
4.415691137313843,-19.77,-49.56,-4.61,53.55
4.427704095840454,-19.47,-51.67,-3.52,55.32
4.4326331615448,-19.2,-52.45,-3.0,55.93
4.442897319793701,-19.47,-52.5,-3.65,56.11
4.453739166259766,-19.71,-50.87,-4.42,54.73
4.463150978088379,-21.28,-48.7,-5.05,53.38
4.4728522300720215,-23.65,-47.58,-6.32,53.5
4.482748031616211,-24.93,-45.08,-7.5,52.05
4.4931840896606445,-26.25,-42.03,-7.92,50.18
4.513513088226318,-27.19,-37.95,-7.12,47.22
4.515610218048096,-27.64,-33.31,-5.93,43.68
4.527486085891724,-27.32,-28.78,-5.06,40.0
4.532279968261719,-27.87,-26.27,-5.15,38.64
4.542953014373779,-30.35,-27.42,-5.19,41.23
4.552933216094971,-31.99,-26.07,-4.7,41.53
4.56253719329834,-35.53,-25.86,-4.88,44.21
4.572859287261963,-41.29,-26.5,-10.14,50.09
4.582693099975586,-49.23,-26.31,-19.93,59.27
4.594048976898193,-55.75,-21.69,-30.61,67.19
4.6133410930633545,-61.33,-14.07,-38.0,73.5
4.614917278289795,-68.69,-7.41,-38.36,79.02
4.622250080108643,-71.6,-2.04,-30.84,77.98
4.632477283477783,-71.6,-0.14,-26.33,76.28
4.6426472663879395,-71.85,6.32,-23.64,75.9
4.652530193328857,-71.78,15.04,-23.76,77.09
4.662693023681641,-69.6,27.97,-25.01,79.06
4.672425270080566,-70.48,40.67,-25.49,85.27
4.692737102508545,-72.24,51.36,-30.05,93.59
4.694292068481445,-69.52,50.57,-34.15,92.5
4.731212139129639,-57.86,35.56,-26.18,72.78
4.732241153717041,-43.68,18.76,-13.21,49.33
4.744889259338379,-31.86,8.6,-10.77,34.71
4.7459611892700195,-26.47,6.51,-12.06,29.8
4.7474071979522705,-26.28,5.6,-11.57,29.25
4.760524272918701,-26.39,3.89,-11.32,28.97
4.762919187545776,-26.53,0.77,-10.23,28.44
4.778722286224365,-28.02,-4.81,-8.42,29.65
4.794041156768799,-30.06,-10.65,-6.79,32.6
4.795898199081421,-31.74,-16.68,-6.48,36.43
4.8127522468566895,-32.78,-21.01,-6.05,39.4
4.81439208984375,-33.55,-24.12,-4.95,41.61
4.822082996368408,-34.25,-27.58,-5.32,44.29
4.832229137420654,-35.03,-31.53,-7.04,47.65
4.84201717376709,-36.54,-35.64,-9.13,51.85
4.859323024749756,-38.32,-39.56,-10.15,56.0
4.86323618888855,-39.19,-42.74,-10.52,58.93
4.876303195953369,-39.0,-45.41,-9.94,60.67
4.881575107574463,-38.4,-48.37,-10.08,62.57
4.894383192062378,-37.6,-51.07,-10.11,64.21
4.931581020355225,-36.37,-52.78,-8.95,64.71
4.932598114013672,-34.92,-53.98,-7.81,64.76
4.9447922706604,-33.6,-54.65,-7.58,64.59
4.945835113525391,-32.94,-54.75,-7.8,64.36
4.947575092315674,-33.17,-55.15,-9.69,65.08
4.960621118545532,-33.15,-54.92,-12.76,65.4
4.962510108947754,-33.18,-54.86,-16.03,66.08
4.9793381690979,-32.97,-55.37,-17.7,66.82
4.981457233428955,-30.33,-54.89,-18.26,65.31
4.996222972869873,-23.6,-52.01,-16.41,59.42
5.032289028167725,-11.03,-48.75,-13.17,51.68
5.0333921909332275,2.73,-51.36,-8.01,52.05
5.045513153076172,13.16,-61.81,4.86,63.38
5.046616077423096,22.87,-70.83,20.23,77.13
5.048205137252808,35.82,-61.89,33.31,78.88
5.061972141265869,41.07,-55.89,37.41,78.8
5.062839984893799,43.03,-51.19,38.25,77.03
5.071540117263794,47.84,-47.71,35.99,76.55
5.081538200378418,54.7,-47.35,28.62,77.8
5.096138000488281,57.72,-47.77,22.61,78.26
5.133458137512207,54.53,-49.71,18.71,76.12
5.146166086196899,48.52,-51.68,15.55,72.57
5.14725399017334,39.22,-53.32,11.47,67.17
5.149256229400635,26.99,-53.75,8.23,60.7
5.161285161972046,14.14,-53.02,6.29,55.23
5.169259071350098,2.61,-52.49,3.62,52.67
5.180575132369995,-6.97,-52.23,1.3,52.7
5.1859002113342285,-14.21,-51.92,-0.37,53.83
5.1966071128845215,-18.91,-51.0,-2.15,54.43
5.212388038635254,-21.31,-49.0,-3.45,53.54
5.237436294555664,-21.78,-46.74,-4.18,51.73
5.238569259643555,-21.3,-44.99,-5.87,50.12
5.251028060913086,-21.4,-44.11,-7.82,49.64
5.2626752853393555,-21.75,-43.08,-8.35,48.97
5.2644782066345215,-22.15,-43.25,-8.34,49.3
5.2661051750183105,-22.62,-45.28,-6.76,51.06
5.2793402671813965,-22.52,-47.92,-3.85,53.08
5.286139011383057,-21.74,-49.49,-1.23,54.06
5.2969231605529785,-21.61,-49.3,0.74,53.83
5.312348127365112,-22.62,-48.09,1.11,53.15
5.336915016174316,-23.92,-46.96,-0.5,52.7
5.34870719909668,-25.31,-46.04,-2.52,52.59
5.349873065948486,-26.39,-44.19,-4.07,51.63
5.352205276489258,-25.95,-41.22,-5.23,48.98
5.3691771030426025,-25.0,-37.31,-5.51,45.24
5.3804240226745605,-24.82,-32.93,-4.17,41.44
5.385109186172485,-24.84,-28.59,-2.72,37.97
5.385862112045288,-23.52,-24.35,-1.86,33.9
5.401885986328125,-21.98,-20.5,-2.03,30.12
5.403666973114014,-22.11,-20.18,-3.22,30.1
5.439764022827148,-23.67,-19.59,-4.51,31.05
5.451669216156006,-27.76,-17.89,-6.0,33.56
5.462944030761719,-36.35,-15.73,-10.25,40.91
5.464513301849365,-47.66,-6.88,-12.29,49.69
5.466122150421143,-57.71,3.93,-16.78,60.22
5.479742050170898,-63.74,10.75,-19.88,67.62
5.480269193649292,-67.3,14.92,-15.7,70.69
5.49622917175293,-68.71,17.15,-10.56,71.6
5.509582042694092,-66.36,18.94,-9.45,69.65
5.522098064422607,-63.76,15.92,-11.97,66.79
5.545994281768799,-63.13,11.44,-13.75,65.61
5.547085285186768,-62.2,13.38,-12.01,64.74
5.5486040115356445,-59.51,19.71,-10.26,63.52
5.549352169036865,-55.85,25.93,-7.16,61.99
5.5628132820129395,-51.77,28.64,-2.1,59.2
5.563937187194824,-48.05,27.85,-0.79,55.54
5.5701282024383545,-45.31,25.22,-3.4,51.96
5.571092128753662,-42.18,20.03,-7.36,47.27
5.596418142318726,-37.43,14.42,-10.12,41.36
5.598247051239014,-31.76,9.83,-10.23,34.78
5.6122612953186035,-27.11,5.89,-9.13,29.2
5.6131181716918945,-24.8,2.69,-8.2,26.25
5.620112180709839,-25.27,-0.21,-7.58,26.38
5.631352186203003,-27.6,-3.94,-6.94,28.73
5.645841121673584,-30.43,-9.07,-5.97,32.3
5.661099195480347,-32.65,-15.27,-4.23,36.29
5.662734031677246,-33.24,-20.45,-2.68,39.11
5.669891119003296,-32.49,-24.38,-2.68,40.7
5.680255174636841,-31.78,-27.77,-3.86,42.37
5.69087815284729,-31.97,-31.48,-4.7,45.11
5.711031198501587,-32.52,-35.62,-4.74,48.46
5.711893081665039,-32.42,-38.95,-4.33,50.86
5.720077991485596,-31.96,-41.28,-4.4,52.39
5.7300801277160645,-31.69,-42.67,-4.45,53.33
5.740446090698242,-31.45,-43.45,-4.3,53.8
5.750364303588867,-31.3,-44.07,-4.55,54.24
5.76002311706543,-31.15,-44.51,-4.95,54.55
5.772276163101196,-30.77,-45.28,-4.94,54.96
5.77997612953186,-29.96,-45.75,-4.95,54.91
5.794075012207031,-29.32,-45.72,-4.98,54.54
5.811387062072754,-29.1,-45.13,-5.06,53.93
5.812249183654785,-29.83,-44.83,-6.49,54.23
5.828013181686401,-30.55,-43.75,-8.21,53.98
5.83067512512207,-29.9,-43.82,-10.48,54.07
5.844395160675049,-25.8,-44.57,-11.39,52.74
5.860987186431885,-15.51,-45.67,-7.9,48.87
5.861836194992065,-1.4,-47.87,-1.41,47.91
5.870106220245361,10.8,-49.61,8.12,51.41
5.881440162658691,16.37,-51.42,20.58,57.75
5.8949360847473145,22.66,-48.97,30.46,61.96
5.9122700691223145,34.0,-44.47,29.94,63.48
5.913976192474365,42.81,-40.72,27.22,65.05
5.928524971008301,45.8,-42.3,27.54,68.15
5.930837154388428,49.36,-43.82,27.43,71.47
5.946979999542236,51.62,-46.25,25.76,73.94
5.960977077484131,51.19,-49.22,23.98,74.95
5.9622802734375,46.67,-51.19,22.27,72.76
5.9785051345825195,37.44,-52.93,22.09,68.49
5.980515003204346,25.98,-53.56,21.39,63.25
5.995479106903076,13.65,-53.03,17.96,57.62
6.011794090270996,1.5,-51.36,12.23,52.81
6.012977123260498,-8.57,-50.0,6.39,51.13
6.028249263763428,-15.7,-48.82,2.36,51.33
6.0302252769470215,-19.89,-47.42,-0.26,51.42
6.0444512367248535,-21.48,-45.43,-1.59,50.27
6.061057090759277,-21.68,-43.71,-2.01,48.83
6.062178134918213,-21.51,-42.38,-2.76,47.6
6.0696210861206055,-21.32,-41.76,-4.7,47.12
6.080357074737549,-21.56,-40.74,-6.42,46.53
6.095038175582886,-21.8,-40.24,-7.2,46.32
6.111155986785889,-21.97,-41.61,-6.85,47.54
6.112314224243164,-22.22,-44.18,-4.65,49.67
6.1283183097839355,-22.01,-45.88,-2.15,50.93
6.130239009857178,-21.78,-46.91,-0.65,51.72
6.139492988586426,-21.82,-47.56,-0.78,52.33
6.148504257202148,-22.06,-47.05,-2.1,52.0
6.159475088119507,-22.63,-45.58,-3.76,51.02
6.16913914680481,-23.38,-44.03,-5.86,50.19
6.178695201873779,-23.8,-41.92,-8.45,48.94
6.189901113510132,-24.03,-39.35,-10.05,47.18
6.210509300231934,-24.06,-35.76,-10.27,44.3
6.211382150650024,-22.98,-30.99,-9.68,39.77
6.228800296783447,-21.51,-26.55,-9.02,35.34
6.229710102081299,-21.9,-23.29,-8.12,32.98
6.238394260406494,-25.83,-21.87,-6.45,34.45
6.248423099517822,-32.37,-20.99,-4.06,38.79
6.258639097213745,-36.77,-18.98,-1.3,41.4
6.277482032775879,-36.08,-25.04,-4.68,44.16
6.28071928024292,-36.11,-25.99,-13.49,46.49
6.289667129516602,-44.2,-17.34,-21.44,52.09
6.310922145843506,-56.62,-9.56,-28.01,63.88
6.312628269195557,-64.87,-3.4,-30.15,71.61
6.318603038787842,-67.85,2.74,-25.91,72.68
6.330440044403076,-67.63,8.12,-19.84,70.94
6.3444743156433105,-67.16,11.07,-15.83,69.88
6.348520278930664,-66.16,7.19,-15.21,68.26
6.361347198486328,-65.16,15.02,-17.15,69.03
6.378321170806885,-63.39,21.06,-22.17,70.37
6.379990100860596,-59.52,28.68,-23.2,70.02
6.395236015319824,-56.43,33.45,-20.64,68.76
6.422199249267578,-52.82,34.55,-16.82,65.31
6.434823036193848,-47.99,31.54,-14.66,59.26
6.446842193603516,-42.88,26.19,-13.41,52.0
6.448501110076904,-37.69,19.13,-12.85,44.17
6.4504852294921875,-32.31,13.86,-12.39,37.27
6.4511542320251465,-27.35,9.46,-11.99,31.32
6.471319198608398,-23.69,5.53,-12.86,27.51
6.471948146820068,-23.18,2.34,-13.37,26.86
6.484302043914795,-25.99,-1.96,-13.47,29.33
6.488406181335449,-29.18,-6.56,-13.05,32.63
6.512952089309692,-31.51,-12.3,-12.82,36.17
6.513805150985718,-32.33,-17.48,-11.1,38.39
6.5180230140686035,-31.71,-21.5,-9.67,39.51
6.528491020202637,-30.82,-25.34,-10.83,41.34
6.539858102798462,-31.29,-29.76,-12.52,44.96
6.548530101776123,-32.59,-34.51,-12.89,49.18
6.558412075042725,-33.57,-38.43,-12.17,52.45
6.568233966827393,-34.52,-41.99,-10.77,55.41
6.579297065734863,-35.16,-44.92,-9.58,57.84
6.588716983795166,-35.21,-47.19,-8.94,59.55
6.621485233306885,-34.77,-48.86,-8.55,60.57
6.636408090591431,-33.97,-50.14,-8.47,61.15
6.647919178009033,-32.77,-51.06,-7.85,61.17
6.6512291431427,-31.29,-51.46,-7.68,60.71
6.665052175521851,-29.98,-52.03,-8.21,60.6
6.6701340675354,-28.84,-52.09,-9.26,60.25
6.681422233581543,-28.35,-51.68,-9.89,59.76
6.686697006225586,-28.64,-51.35,-11.08,59.83
6.697908163070679,-29.18,-50.64,-12.48,59.76
6.714306116104126,-28.78,-49.05,-12.55,58.23
6.7430009841918945,-26.02,-45.12,-10.7,53.17
6.755863189697266,-19.15,-40.36,-6.7,45.17
6.771285057067871,-5.68,-35.3,-0.91,35.76
6.782620191574097,6.43,-38.65,5.25,39.53
6.78395414352417,9.03,-54.1,11.32,56.0
6.798375129699707,14.6,-59.63,23.14,65.6
6.800143241882324,31.24,-48.41,28.3,64.18
6.815789222717285,37.76,-47.51,31.09,68.18
6.817199230194092,39.05,-46.51,37.81,71.53
6.830498218536377,42.08,-45.47,40.28,73.89
6.859619140625,45.26,-48.7,42.56,78.93
6.872433185577393,46.91,-52.6,45.02,83.63
6.873435974121094,46.79,-55.26,41.74,83.57
6.874933242797852,43.27,-56.02,34.15,78.59
6.876477241516113,34.79,-55.75,26.13,70.71
6.877668142318726,23.25,-54.9,17.57,62.15
6.879215240478516,11.4,-54.17,9.74,56.2
6.880751132965088,0.93,-53.66,4.81,53.88
6.882139205932617,-7.25,-53.51,1.63,54.02
6.898759126663208,-13.1,-52.83,-1.07,54.44
6.913227081298828,-16.1,-51.31,-3.61,53.89
6.914295196533203,-16.83,-48.33,-4.45,51.36
6.9314351081848145,-16.92,-44.62,-4.39,47.92
6.932872295379639,-16.57,-42.61,-5.39,46.03
6.94638729095459,-15.61,-42.02,-6.88,45.35
6.947792053222656,-14.65,-41.94,-7.99,45.13
6.9643120765686035,-14.65,-42.48,-8.38,45.7
6.980957984924316,-16.12,-43.76,-7.22,47.19
6.98239803314209,-18.11,-45.69,-4.55,49.35
6.999299049377441,-19.26,-48.07,-1.31,51.8
7.013312101364136,-20.29,-51.19,1.48,55.08
7.01471209526062,-20.55,-51.61,3.77,55.67
7.030063152313232,-21.19,-51.75,4.22,56.07
7.031469106674194,-22.52,-50.52,2.56,55.37
7.03692626953125,-23.97,-48.19,-1.04,53.83
7.047235012054443,-24.5,-45.28,-4.97,51.72
7.057003974914551,-24.25,-41.34,-7.81,48.55
7.067324161529541,-24.11,-36.55,-9.71,44.84
7.077095985412598,-23.36,-31.86,-10.58,40.89
7.087890148162842,-22.5,-28.57,-10.62,37.88
7.108364105224609,-21.43,-24.57,-10.47,34.24
7.109245300292969,-20.98,-21.63,-8.37,31.27
7.128465175628662,-19.65,-18.9,-7.11,28.17
7.130084037780762,-20.08,-22.13,-11.85,32.14
7.145400047302246,-26.77,-24.93,-20.26,41.81
7.147308111190796,-38.19,-19.31,-30.44,52.51
7.161839008331299,-49.65,-10.49,-39.79,64.48
7.167118072509766,-56.21,-1.19,-45.69,72.44
7.177929162979126,-57.49,2.13,-46.44,73.93
7.195996284484863,-55.5,3.0,-42.02,69.67
7.222063064575195,-53.6,1.63,-36.93,65.11
7.223059177398682,-53.82,-3.3,-33.63,63.54
7.22363018989563,-54.39,-5.64,-31.85,63.28
7.226659297943115,-52.66,-0.66,-33.22,62.26
7.245525121688843,-51.26,8.38,-34.35,62.27
7.247837066650391,-51.75,19.09,-32.52,64.03
7.261973142623901,-52.26,25.93,-28.46,64.91
7.266905307769775,-50.55,28.32,-26.26,63.61
7.276925086975098,-46.96,26.11,-25.14,59.32
7.296325206756592,-42.03,20.58,-22.11,51.75
7.3227410316467285,-36.35,14.18,-19.29,43.52
7.335844039916992,-30.72,8.27,-17.18,36.15
7.349970102310181,-26.37,3.29,-15.63,30.83
7.3647379875183105,-24.01,-0.27,-14.24,27.91
7.377925157546997,-23.02,-3.31,-13.79,27.03
7.390366077423096,-23.25,-7.28,-14.05,28.12
7.4020161628723145,-24.3,-12.09,-13.94,30.51
7.403098106384277,-25.64,-17.99,-13.74,34.2
7.420360088348389,-26.11,-23.46,-13.46,37.59
7.432618141174316,-25.27,-26.81,-13.17,39.12
7.44691014289856,-24.86,-30.51,-12.87,41.4
7.448029041290283,-25.2,-34.37,-12.5,44.41
7.453216075897217,-25.87,-37.49,-11.76,47.04
7.464217185974121,-26.57,-40.9,-10.84,49.96
7.470242977142334,-26.69,-43.22,-10.57,51.88
7.481332302093506,-26.54,-44.94,-10.66,53.26
7.487142086029053,-26.18,-46.59,-10.85,54.53
7.498104095458984,-25.6,-47.77,-10.02,55.11
7.503738164901733,-24.93,-48.78,-8.07,55.37
7.515942096710205,-24.32,-49.57,-6.43,55.58
7.530333042144775,-23.94,-50.51,-5.85,56.2
7.531411170959473,-23.79,-51.29,-6.83,56.94
7.536806106567383,-24.07,-51.88,-8.03,57.75
7.548065185546875,-24.66,-52.82,-9.68,59.09
7.553670167922974,-24.8,-52.05,-10.17,58.54
7.564573287963867,-24.1,-50.18,-9.47,56.46
7.57053017616272,-21.24,-48.29,-7.67,53.3
7.58169412612915,-15.04,-46.08,-4.9,48.71
7.587063312530518,-3.32,-42.42,-1.32,42.57
7.599598169326782,12.77,-42.4,1.46,44.3
7.613840103149414,27.81,-47.38,8.23,55.55
7.614986181259155,38.02,-53.15,19.85,68.29
7.630842208862305,48.06,-47.55,28.55,73.38
7.631960153579712,54.6,-36.47,29.42,71.94
7.648064136505127,53.5,-33.86,26.58,68.66
7.649150133132935,54.41,-33.52,23.96,68.25
7.664916038513184,57.76,-32.95,22.17,70.09
7.666056156158447,58.81,-37.46,17.48,71.88
7.683200120925903,57.27,-41.52,10.64,71.53
7.699405193328857,51.74,-41.2,2.97,66.2
7.714466094970703,41.6,-39.89,-4.64,57.82
7.729745149612427,29.42,-38.4,-10.38,49.47
7.730895042419434,18.02,-38.47,-11.25,43.94
7.736576080322266,7.77,-40.52,-7.6,41.95
7.737560272216797,-0.83,-44.67,-0.35,44.67
7.764249086380005,-7.07,-47.04,9.26,48.46
7.765772104263306,-9.85,-45.78,14.95,49.15
7.770312309265137,-10.79,-45.09,13.06,48.16
7.7822489738464355,-11.78,-44.63,7.29,46.73
7.798782110214233,-13.09,-43.55,0.58,45.47
7.812831163406372,-13.91,-42.22,-5.62,44.8
7.813688278198242,-14.59,-40.96,-7.54,44.12
7.815518140792847,-14.87,-40.11,-5.89,43.18
7.830357074737549,-14.76,-41.1,-2.94,43.76
7.846256256103516,-14.52,-43.25,0.24,45.62
7.847945213317871,-13.97,-45.29,2.55,47.46
7.85750412940979,-13.82,-45.13,3.03,47.29
7.865411281585693,-14.48,-44.08,1.97,46.43
7.875598192214966,-15.03,-42.67,1.12,45.25
7.897554159164429,-14.9,-40.97,0.97,43.6
7.912206172943115,-15.2,-39.21,0.89,42.06
7.913000106811523,-16.44,-37.47,1.17,40.93
7.915045261383057,-18.25,-35.58,1.44,40.01
7.928964138031006,-21.0,-34.43,2.04,40.38
7.93546724319458,-22.91,-33.01,4.09,40.38
7.9463582038879395,-22.45,-27.85,6.31,36.32
7.955615043640137,-20.95,-22.65,8.43,31.98
7.9653542041778564,-21.12,-20.65,3.62,29.75
7.975329160690308,-27.17,-20.72,-6.93,34.86
7.985722064971924,-37.02,-14.81,-13.31,42.03
8.006911277770996,-43.85,-6.57,-14.48,46.64
8.008395195007324,-45.06,-2.88,-15.0,47.57
8.015017032623291,-49.04,-1.19,-13.92,50.99
8.031691074371338,-56.49,2.23,-8.5,57.16
8.034811019897461,-61.57,6.84,-7.06,62.34
8.045222282409668,-63.33,8.37,-9.74,64.61
8.062263011932373,-63.22,9.67,-10.91,64.87
8.065109252929688,-62.53,8.48,-11.05,64.06
8.078992128372192,-62.04,5.37,-11.44,63.31
8.096618175506592,-60.11,6.65,-10.31,61.34
8.123298168182373,-56.75,13.0,-7.39,58.68
8.124028205871582,-54.68,19.93,-3.43,58.29
8.136510133743286,-54.2,25.2,-0.14,59.77
8.14847707748413,-53.32,26.67,-2.4,59.66
8.164806127548218,-50.66,24.77,-6.25,56.73
8.177147150039673,-46.56,20.98,-8.05,51.69
8.178004264831543,-41.75,15.51,-8.35,45.31
8.187020301818848,-36.14,10.15,-7.56,38.29
8.187905311584473,-31.04,5.5,-6.07,32.1
8.214048147201538,-27.6,1.76,-4.62,28.03
8.239286184310913,-26.38,-1.36,-4.21,26.74
8.24068021774292,-27.1,-4.74,-3.97,27.79
8.241359233856201,-28.58,-9.39,-3.53,30.28
8.254361152648926,-29.95,-14.97,-2.73,33.59
8.255300998687744,-30.33,-19.86,-2.22,36.32
8.270311117172241,-30.25,-24.42,-2.65,38.96
8.271167278289795,-29.63,-29.01,-3.68,41.63
8.28632402420044,-28.94,-32.87,-5.32,44.11
8.28723430633545,-28.65,-35.96,-5.98,46.36
8.304787158966064,-28.86,-39.06,-5.4,48.86
8.330053091049194,-29.14,-41.75,-4.48,51.11
8.33144211769104,-29.28,-43.91,-3.79,52.91
8.332086086273193,-29.02,-45.72,-3.6,54.27
8.337401151657104,-28.23,-46.99,-3.58,54.93
8.338235139846802,-27.49,-47.72,-3.74,55.19
8.354546070098877,-26.93,-47.98,-4.57,55.21
8.355164051055908,-26.44,-47.85,-5.55,54.94
8.36951208114624,-26.36,-47.9,-6.91,55.1
8.374051094055176,-26.38,-47.95,-8.59,55.39
8.386736154556274,-26.65,-47.52,-10.98,55.57
8.412545204162598,-26.74,-47.33,-13.77,56.07
8.414194107055664,-26.13,-47.31,-15.38,56.19
8.415057182312012,-23.77,-47.61,-16.07,55.58
8.424498081207275,-16.75,-47.44,-12.91,51.94
8.434662103652954,-5.66,-49.69,-5.84,50.35
8.450535297393799,6.53,-55.26,2.36,55.69
8.454077243804932,15.37,-57.68,12.93,61.07
8.465618133544922,22.22,-56.44,24.56,65.44
8.474024295806885,32.41,-51.55,26.27,66.31
8.484910011291504,41.36,-44.34,27.28,66.48
8.518179178237915,44.57,-41.92,31.23,68.69
8.51953911781311,45.67,-40.92,37.07,71.65
8.520226001739502,47.86,-40.77,41.84,75.52
8.523880004882812,51.1,-45.01,40.21,79.08
8.533883094787598,52.3,-47.98,37.79,80.4
8.544497013092041,49.45,-50.21,32.65,77.66
8.553768157958984,42.84,-52.19,25.08,72.02
8.56620717048645,32.79,-53.29,17.53,64.97
8.573925971984863,19.7,-53.67,7.74,57.69
8.585435152053833,6.49,-52.81,-1.7,53.23
8.617027282714844,-4.29,-51.38,-6.2,51.93
8.61795711517334,-12.03,-50.87,-7.45,52.8
8.618799209594727,-16.66,-50.75,-7.72,53.96
8.623730182647705,-18.93,-49.74,-8.04,53.82
8.634068012237549,-19.47,-47.48,-9.29,52.15
8.644909143447876,-19.2,-44.38,-10.33,49.44
8.65344524383545,-19.06,-41.88,-10.85,47.27
8.664616107940674,-18.89,-40.92,-10.87,46.36
8.674952983856201,-18.69,-41.95,-10.91,47.2
8.684446096420288,-18.27,-45.19,-12.19,50.24
8.718370199203491,-18.69,-48.68,-12.12,53.53
8.719811201095581,-19.54,-51.15,-9.57,55.58
8.720438003540039,-20.01,-52.18,-6.72,56.28
8.723361015319824,-20.1,-52.21,-4.68,56.14
8.734734058380127,-20.11,-50.48,-2.74,54.4
8.743833065032959,-21.0,-48.58,-1.39,52.94
8.753205299377441,-22.18,-46.24,-1.45,51.3
8.763059139251709,-23.92,-43.8,-3.26,50.01
8.775593280792236,-25.49,-40.14,-5.8,47.9
8.78459119796753,-26.11,-36.16,-8.69,45.44
8.805816173553467,-25.22,-32.04,-10.26,42.04
8.807469129562378,-23.85,-28.84,-11.72,39.21
8.813308238983154,-23.91,-25.55,-12.84,37.27
8.82392930984497,-27.54,-20.13,-10.95,35.82
8.833724975585938,-28.57,-14.08,-9.48,33.23
8.843149185180664,-26.86,-10.99,-12.95,31.77
8.853344202041626,-30.3,-11.08,-21.6,38.82
8.865423202514648,-42.09,-5.74,-29.13,51.5
8.873373031616211,-55.76,5.29,-30.0,63.53
8.89622712135315,-63.45,14.83,-28.27,71.02
8.921626091003418,-66.35,21.41,-23.05,73.43
8.92296028137207,-67.25,22.41,-15.01,72.45
8.923628091812134,-65.34,19.06,-10.79,68.91
8.93819522857666,-60.61,14.28,-12.01,63.41
8.93907117843628,-58.56,9.44,-16.97,61.69
8.954623222351074,-59.73,6.31,-20.35,63.41
8.955250263214111,-58.15,7.03,-21.54,62.4
8.97037410736084,-53.35,11.15,-21.92,58.74
8.973011016845703,-49.23,14.81,-21.08,55.56
8.987396240234375,-46.96,16.54,-17.54,52.78
9.01703405380249,-43.95,14.07,-16.6,49.04
9.017926216125488,-38.17,10.04,-17.36,43.11
9.019078254699707,-31.31,6.77,-16.64,36.09
9.023986101150513,-26.61,4.53,-14.5,30.64
9.03283405303955,-24.56,3.4,-11.32,27.25
9.043076038360596,-23.86,2.85,-8.67,25.54
9.05376410484314,-23.84,1.82,-7.55,25.07
9.062954187393188,-24.73,-0.27,-7.42,25.82
9.073785305023193,-26.52,-4.13,-7.72,27.92
9.08359432220459,-28.89,-10.0,-8.62,31.76
9.116828203201294,-31.04,-17.07,-10.53,36.95
9.119349002838135,-31.6,-22.94,-12.08,40.87
9.120416164398193,-30.52,-27.54,-13.19,43.17
9.122745990753174,-29.12,-31.57,-13.56,45.03
9.132008075714111,-28.78,-35.68,-13.05,47.66
9.142561197280884,-29.08,-39.05,-12.18,50.18
9.152671098709106,-29.57,-41.83,-11.15,52.42
9.163580179214478,-29.66,-44.02,-10.45,54.09
9.173898220062256,-29.1,-46.11,-9.83,55.4
9.183999061584473,-28.03,-47.89,-8.77,56.17
9.217459201812744,-26.22,-48.52,-8.37,55.78
9.218600273132324,-24.41,-48.68,-8.35,55.09
9.220072269439697,-23.24,-48.27,-8.01,54.16
9.222547054290771,-22.85,-47.6,-7.83,53.37
9.23188304901123,-22.9,-46.99,-8.03,52.88
9.242213249206543,-23.33,-46.75,-8.74,52.97
9.25216817855835,-23.97,-46.44,-9.96,53.2
9.262408256530762,-23.95,-46.63,-11.92,53.75
9.272705078125,-22.64,-47.06,-13.23,53.87
9.283451080322266,-18.08,-46.84,-13.14,51.89
9.304607152938843,-7.74,-42.52,-9.43,44.23
9.306244134902954,3.96,-38.76,-2.93,39.07
9.312104225158691,14.81,-39.62,4.43,42.52
9.323392152786255,23.54,-47.57,12.15,54.44
9.332372188568115,33.82,-50.63,15.78,62.89
9.347033977508545,46.01,-42.32,16.46,64.64
9.352066040039062,52.05,-36.03,15.93,65.27
9.36240816116333,54.35,-34.64,13.12,65.77
9.373178005218506,57.73,-32.31,10.53,66.98
9.382687091827393,60.76,-32.27,6.41,69.09
9.415830135345459,61.43,-33.48,2.57,70.0
9.417248249053955,58.59,-34.59,-0.41,68.03
9.418284177780151,51.64,-36.43,-3.79,63.31
9.423449039459229,41.39,-37.67,-4.59,56.15
9.438713073730469,29.1,-39.11,-3.18,48.85
9.442048072814941,16.88,-40.75,-1.38,44.12
9.451961040496826,6.82,-43.33,0.23,43.86
9.462712287902832,-0.04,-45.69,1.67,45.72
9.472090244293213,-4.98,-47.36,1.9,47.65
9.48363208770752,-8.78,-47.58,0.47,48.38
9.504073143005371,-11.1,-45.6,-1.55,46.95
9.506009101867676,-12.49,-42.83,-4.43,44.83
9.511533260345459,-13.72,-41.0,-7.81,43.93
9.531992197036743,-14.64,-39.57,-10.14,43.39
9.533197164535522,-15.28,-38.95,-10.14,43.05
9.542518138885498,-15.98,-40.3,-8.46,44.17
9.552077293395996,-16.15,-43.08,-6.1,46.41
9.561699151992798,-16.47,-46.03,-3.39,49.0
9.57223916053772,-17.59,-48.45,-1.75,51.57
9.58289623260498,-18.57,-49.84,-1.72,53.21
9.604063987731934,-18.62,-49.07,-2.09,52.52
9.605722188949585,-18.85,-47.31,-2.22,50.97
9.612314224243164,-19.5,-44.71,-2.64,48.84
9.622156143188477,-20.44,-40.67,-3.28,45.63
9.633708000183105,-21.4,-36.55,-3.91,42.53
9.641818046569824,-21.85,-33.86,-4.62,40.56
9.65226125717163,-21.58,-31.14,-4.57,38.16
9.66186809539795,-22.35,-28.32,-5.42,36.48
9.672674179077148,-23.76,-24.38,-6.25,34.61
9.682249069213867,-25.02,-18.58,-6.68,31.87
9.704846143722534,-25.55,-13.36,-6.04,29.45
9.7066969871521,-24.28,-9.91,-6.74,27.07
9.711431980133057,-26.09,-11.1,-12.93,31.16
9.722774982452393,-32.15,-8.18,-20.29,38.88
9.732353210449219,-41.72,-1.64,-25.07,48.7
9.741193294525146,-50.3,2.19,-26.79,57.03
9.751674175262451,-54.13,4.83,-27.73,61.01
9.76173710823059,-57.02,6.52,-25.3,62.72
9.780022144317627,-58.86,8.44,-18.75,62.34
9.782971143722534,-58.19,8.13,-17.74,61.37
9.815812110900879,-58.27,4.42,-20.9,62.06
9.817233085632324,-58.25,4.6,-22.99,62.79
9.81846809387207,-55.89,10.86,-24.45,61.96
9.821572303771973,-53.03,19.29,-24.0,61.32
9.838924169540405,-51.2,26.63,-18.95,60.74
9.84115719795227,-48.84,29.53,-17.86,59.8
9.850995063781738,-46.25,29.49,-19.33,58.15
9.861579179763794,-42.37,25.9,-20.81,53.84
9.871100187301636,-37.08,21.01,-22.48,48.18
9.882301092147827,-31.94,16.31,-21.0,41.55
9.915678024291992,-27.98,11.77,-18.33,35.45
9.91711711883545,-25.35,7.69,-15.84,30.86
9.9185631275177,-24.54,3.65,-14.16,28.56
9.922961235046387,-25.73,-0.55,-12.55,28.63
9.938529014587402,-28.15,-5.86,-10.75,30.69
9.940982103347778,-30.3,-11.91,-8.36,33.61
9.950777053833008,-30.88,-17.45,-6.42,36.04
9.961064100265503,-29.94,-22.12,-6.34,37.76
9.9707190990448,-29.08,-26.53,-7.05,39.98
9.981754302978516,-29.09,-30.82,-7.07,42.96
10.01515817642212,-29.53,-34.24,-6.57,45.68
10.016554117202759,-30.46,-38.0,-6.08,49.07
10.017194271087646,-30.89,-40.76,-5.52,51.43
10.023567199707031,-30.68,-42.48,-5.14,52.65
10.03826904296875,-30.0,-43.8,-4.87,53.31
10.040568113327026,-28.84,-44.98,-4.42,53.61
10.05073618888855,-27.67,-46.7,-4.61,54.47
10.060667037963867,-26.1,-47.07,-4.93,54.04
10.070747137069702,-24.78,-47.01,-5.11,53.38
10.08229112625122,-24.25,-47.55,-6.01,53.71
10.114930152893066,-24.1,-48.01,-7.26,54.2
10.116376161575317,-24.27,-48.36,-8.46,54.76
10.11703610420227,-25.13,-49.71,-9.52,56.5
10.123147010803223,-25.32,-51.0,-11.16,58.02
10.139032125473022,-23.81,-50.37,-12.69,57.14
10.140395164489746,-18.43,-46.38,-10.06,50.91
10.150431156158447,-7.06,-41.45,-7.28,42.67
10.160951137542725,6.59,-42.08,-3.56,42.74
10.17012619972229,18.32,-45.02,0.33,48.6
10.181698322296143,25.21,-49.81,6.73,56.23
10.214677095413208,31.42,-53.4,12.76,63.25
10.216094970703125,42.28,-43.93,19.96,64.15
10.216762065887451,50.71,-38.49,26.22,68.85
10.222971200942993,54.27,-40.53,29.54,73.89
10.23110318183899,55.92,-42.02,30.25,76.2
10.240999221801758,57.55,-44.21,27.92,77.75
10.250044107437134,56.59,-48.76,22.35,77.97
10.260354042053223,53.13,-52.37,16.49,76.4
10.270326137542725,45.95,-53.33,13.42,71.66
10.281245231628418,34.14,-53.34,10.29,64.16
10.315122127532959,20.73,-52.47,5.59,56.69
10.316667079925537,8.94,-51.85,0.91,52.62
10.317306995391846,-0.18,-51.79,-3.18,51.88
10.32364010810852,-7.21,-51.75,-6.45,52.64
10.338666200637817,-12.48,-50.95,-9.53,53.31
10.340773105621338,-15.35,-48.17,-10.53,51.64
10.3608980178833,-15.64,-44.85,-10.4,48.62
10.36259412765503,-14.56,-40.6,-9.57,44.18
10.370151996612549,-14.5,-38.46,-9.67,42.22
10.381048202514648,-14.22,-37.81,-11.1,41.89
10.402871131896973,-13.56,-37.76,-12.07,41.89
10.416266202926636,-13.03,-39.01,-11.62,42.73
10.417359113693237,-13.2,-41.98,-9.53,45.02
10.41951322555542,-13.88,-44.09,-5.96,46.6
10.43024730682373,-14.83,-45.36,-2.81,47.8
10.440097093582153,-15.58,-46.7,-1.5,49.25
10.450054168701172,-16.13,-47.56,-1.9,50.25
10.460099220275879,-16.91,-48.08,-3.41,51.08
10.469864130020142,-17.19,-46.69,-4.68,49.97
10.480213165283203,-17.14,-43.45,-4.96,46.97
10.502639293670654,-17.8,-40.04,-4.6,44.05
10.51442813873291,-18.69,-37.16,-3.81,41.76
10.515388011932373,-19.7,-34.81,-3.54,40.15
10.519527196884155,-19.9,-31.74,-3.42,37.61
10.530586242675781,-19.62,-29.38,-3.81,35.53
10.540103197097778,-19.29,-25.55,-3.83,32.24
10.550840139389038,-18.78,-19.55,-4.02,27.4
10.560078144073486,-20.76,-15.97,-4.88,26.64
10.5697922706604,-24.81,-15.85,-5.33,29.91
10.5802481174469,-27.43,-17.0,-5.28,32.69
10.601191997528076,-30.19,-20.03,-8.02,37.1
10.60337209701538,-36.33,-21.23,-12.65,43.93
10.609686136245728,-45.05,-16.51,-17.04,50.91
10.619678974151611,-53.36,-12.65,-23.99,59.85
10.629853248596191,-59.26,-10.31,-30.41,67.4
10.641285181045532,-64.93,-4.65,-29.97,71.66
10.649908065795898,-70.52,1.87,-22.73,74.11
10.659849166870117,-72.19,4.38,-18.57,74.66
10.66938829421997,-71.16,6.11,-17.62,73.56
10.680281162261963,-68.34,8.97,-20.82,72.0
10.702441215515137,-65.24,16.71,-27.58,72.77
10.716103076934814,-63.55,27.39,-27.91,74.61
10.717223167419434,-61.14,33.17,-21.45,72.79
10.719397068023682,-56.77,33.55,-13.49,67.3
10.729371070861816,-51.39,29.91,-7.58,59.94
10.74025821685791,-45.59,22.85,-3.99,51.15
10.749353170394897,-40.1,16.45,-1.7,43.37
10.759557247161865,-35.74,10.28,-2.54,37.27
10.769436120986938,-32.14,4.81,-5.95,33.03
10.780622005462646,-29.15,0.44,-8.9,30.48
10.801139116287231,-27.85,-4.19,-11.15,30.29
10.803065299987793,-28.1,-9.15,-12.02,31.9
10.809300184249878,-28.48,-13.6,-11.6,33.62
10.819467067718506,-28.42,-17.53,-10.3,34.94
10.829277038574219,-28.39,-22.31,-9.47,37.32
10.847271203994751,-28.87,-26.45,-10.06,40.42
10.849238157272339,-30.01,-29.45,-10.9,43.43
10.859090089797974,-31.42,-32.48,-11.45,46.61
10.869367122650146,-32.47,-35.36,-11.39,49.33
10.879924297332764,-33.09,-38.35,-10.6,51.74
10.901148319244385,-33.57,-42.1,-9.07,54.6
10.903464317321777,-33.66,-45.53,-7.91,57.17
10.909343242645264,-33.3,-47.73,-7.74,58.71
10.919170141220093,-32.64,-49.07,-8.32,59.51
10.928843975067139,-31.89,-50.48,-9.3,60.42
10.939148187637329,-30.85,-51.99,-9.89,61.25
10.95057201385498,-30.02,-52.7,-10.38,61.53
10.958640098571777,-29.83,-53.41,-11.68,62.28
10.969181060791016,-30.4,-53.48,-13.23,62.92
10.979444026947021,-31.75,-53.4,-14.46,63.78
11.001214981079102,-33.73,-53.86,-15.25,65.35
11.003573179244995,-35.23,-54.81,-15.69,67.01
11.017110109329224,-34.88,-55.75,-14.62,67.36
11.019986152648926,-31.4,-57.49,-12.63,66.71
11.028879165649414,-22.47,-54.75,-8.58,59.8
11.048089027404785,-8.87,-49.11,-0.42,49.9
11.050058126449585,4.89,-47.99,6.39,48.65
11.058786153793335,13.2,-51.09,12.0,54.11
11.068917274475098,18.62,-56.85,16.03,61.93
11.07951831817627,29.88,-53.28,17.99,63.68
11.100610256195068,40.48,-44.72,21.71,64.1
11.11554217338562,44.67,-43.5,27.33,68.07
11.116684198379517,48.58,-42.23,31.27,71.56
11.118141174316406,54.2,-39.67,30.4,73.72
11.133368015289307,59.2,-40.08,24.14,75.45
11.138459205627441,60.55,-41.23,17.14,75.23
11.149705171585083,57.0,-41.82,11.82,71.67
11.158668041229248,51.12,-43.59,7.07,67.55
11.168285131454468,43.68,-46.31,3.03,63.73
11.179265975952148,33.91,-49.3,0.12,59.83
11.221603155136108,22.57,-50.42,-1.87,55.27
11.222906112670898,10.48,-51.02,-2.67,52.15
11.223538160324097,-1.24,-52.06,-3.67,52.2
11.224147319793701,-10.87,-52.82,-4.69,54.13
11.239418029785156,-16.93,-51.53,-4.94,54.46
11.240052223205566,-19.15,-47.68,-5.08,51.63
11.256062984466553,-18.54,-42.74,-5.01,46.85
11.258321285247803,-17.57,-40.02,-6.04,44.12
11.271632194519043,-16.81,-39.06,-8.07,43.28
11.27860403060913,-16.53,-38.24,-9.72,42.77
11.32380723953247,-16.22,-38.05,-11.32,42.88
11.324782133102417,-16.06,-38.66,-12.42,43.66
11.325852155685425,-16.22,-40.18,-12.01,44.96
11.326604127883911,-16.25,-42.54,-9.83,46.58
11.32779598236084,-16.45,-45.11,-6.98,48.52
11.33816909790039,-17.11,-47.19,-4.77,50.42
11.349102020263672,-17.93,-47.28,-2.51,50.62
11.358044147491455,-18.72,-45.4,-0.01,49.1
11.36791706085205,-20.2,-43.62,1.99,48.11
11.378730297088623,-22.07,-42.25,2.86,47.75
11.399618148803711,-23.38,-41.07,1.78,47.29
11.401296138763428,-24.28,-38.65,-0.15,45.64
11.415378093719482,-25.0,-34.99,-2.38,43.06
11.41767930984497,-25.47,-31.55,-2.9,40.65
11.427721977233887,-25.44,-28.05,-2.69,37.96
11.4378821849823,-24.98,-23.57,-1.74,34.38
11.447895050048828,-24.02,-18.93,-0.66,30.58
11.459644317626953,-21.63,-17.0,-2.73,27.64
11.467934131622314,-19.98,-15.13,-7.97,26.29
11.478633165359497,-21.72,-11.91,-14.08,28.49
11.499675273895264,-29.39,-7.53,-20.41,36.56
11.50137209892273,-41.68,-2.95,-26.42,49.43
11.514899253845215,-51.35,1.44,-30.6,59.79
11.517240047454834,-55.08,6.03,-34.59,65.31
11.52763319015503,-55.22,8.45,-35.46,66.16
11.537492275238037,-54.54,8.6,-33.99,64.83
11.548680305480957,-54.25,7.1,-32.31,63.54
11.558900117874146,-54.82,5.23,-29.21,62.33
11.567615985870361,-55.1,3.28,-26.79,61.35
11.57826018333435,-52.88,6.89,-26.62,59.6
11.599220275878906,-50.66,12.95,-26.44,58.59
11.600909233093262,-48.62,19.54,-24.03,57.64
11.61493730545044,-46.87,25.37,-20.24,57.0
11.617737293243408,-45.23,29.43,-17.32,56.67
11.627445220947266,-42.55,29.46,-16.87,54.43
11.63842511177063,-38.39,26.83,-16.97,49.81
11.648012161254883,-33.91,23.05,-15.66,43.89
11.658605098724365,-29.85,18.18,-13.8,37.57
11.667506217956543,-26.57,13.11,-12.37,32.1
11.679180145263672,-24.45,8.43,-11.14,28.15
11.699546098709106,-24.27,3.7,-10.92,26.86
11.70045518875122,-25.98,-1.15,-11.25,28.33
11.707395076751709,-27.87,-6.11,-11.12,30.62
11.718124151229858,-28.83,-10.94,-11.6,32.94
11.727410316467285,-28.95,-14.77,-12.93,34.97
11.738077163696289,-28.89,-18.17,-14.5,37.08
11.74694299697876,-29.8,-23.04,-15.36,40.67
11.757249116897583,-31.33,-29.6,-14.76,45.55
11.767404079437256,-32.2,-35.31,-12.31,49.34
11.777866125106812,-32.32,-39.72,-9.66,52.11
11.82588005065918,-31.77,-43.44,-7.6,54.35
11.826992988586426,-30.45,-45.5,-6.19,55.09
11.827859163284302,-29.14,-46.88,-5.51,55.47
11.830179214477539,-27.95,-47.55,-5.21,55.4
11.831533193588257,-26.71,-47.64,-5.69,54.91
11.836786270141602,-25.68,-47.44,-5.62,54.23
11.846914291381836,-25.13,-46.44,-5.35,53.07
11.858299255371094,-25.26,-45.27,-6.37,52.23
11.86670708656311,-26.01,-45.18,-6.54,52.54
11.877500057220459,-26.61,-45.49,-6.22,53.06
11.899157047271729,-27.21,-45.43,-6.7,53.37
11.900032997131348,-27.72,-44.79,-7.49,53.2
11.91534423828125,-27.77,-43.92,-8.23,52.61
11.917242050170898,-26.66,-43.18,-7.39,51.28
11.926698207855225,-22.31,-41.51,-5.53,47.44
11.93669605255127,-13.34,-38.51,-4.77,41.03
11.946972131729126,-1.21,-36.42,-1.6,36.47
11.958043098449707,9.89,-38.57,2.33,39.88
11.967642307281494,14.3,-44.62,12.67,48.53
11.977611064910889,18.91,-51.84,25.55,60.8
12.023535251617432,33.62,-44.48,30.44,63.52
12.037811279296875,42.46,-44.23,34.7,70.45
12.039445161819458,45.82,-47.73,42.45,78.61
12.040824174880981,50.1,-46.94,45.32,82.26
12.042107105255127,52.22,-48.47,41.24,82.32
12.0435471534729,52.17,-50.69,32.2,79.54
12.046356201171875,48.96,-52.9,22.94,75.64
12.056955099105835,41.85,-53.4,16.78,69.88
12.067770004272461,31.21,-52.78,10.44,62.19
12.077157974243164,19.01,-52.24,3.29,55.68
12.09862232208252,7.56,-52.21,-1.87,52.78
12.100298166275024,-1.9,-52.96,-4.7,53.2
12.115937232971191,-8.86,-53.29,-5.71,54.32
12.117937088012695,-13.12,-50.94,-6.65,53.02
12.126286029815674,-15.04,-45.9,-6.28,48.7
12.136537075042725,-15.85,-41.86,-6.34,45.2
12.14629602432251,-16.09,-39.69,-7.35,43.45
12.16489315032959,-16.42,-38.73,-8.29,42.87
12.16692304611206,-16.49,-39.49,-9.57,43.85
12.17684817314148,-16.2,-41.05,-9.31,45.1
12.199960231781006,-16.0,-42.15,-7.49,45.7
12.20114016532898,-16.46,-43.55,-5.18,46.84
12.20678997039795,-17.17,-45.47,-2.44,48.66
12.217692136764526,-17.3,-46.13,-0.42,49.26
12.225815296173096,-16.89,-47.02,-0.07,49.96
12.236370086669922,-16.55,-48.72,-1.64,51.48
12.246195316314697,-16.08,-49.09,-3.99,51.81
12.255721092224121,-16.06,-48.25,-5.82,51.18
12.267325162887573,-17.0,-45.83,-7.1,49.39
12.278960227966309,-17.97,-42.75,-7.56,46.98
12.298151969909668,-19.18,-39.91,-6.55,44.76
12.299306154251099,-20.8,-38.0,-5.48,43.66
12.305991172790527,-22.24,-36.57,-4.83,43.07
12.317558288574219,-23.02,-34.46,-4.16,41.64
12.326066017150879,-23.38,-31.51,-4.7,39.51
12.336252212524414,-24.4,-29.48,-6.31,38.78
12.345884323120117,-26.82,-25.14,-5.62,37.18
12.36527419090271,-29.45,-20.3,-2.6,35.86
12.366917133331299,-30.02,-15.15,-0.88,33.63
12.377424240112305,-30.05,-14.82,-5.65,33.97
12.398169040679932,-33.72,-14.54,-15.74,39.95
12.399386167526245,-42.66,-12.21,-24.15,50.51
12.405670166015625,-52.78,-8.69,-32.2,62.43
12.416094303131104,-59.08,-2.71,-33.15,67.79
12.427641153335571,-61.71,0.01,-30.41,68.79
12.43633508682251,-61.13,1.17,-30.1,68.14
12.445877075195312,-60.41,1.47,-30.01,67.46
12.455475091934204,-59.61,-2.64,-31.96,67.68
12.467496156692505,-56.95,-2.84,-35.99,67.42
12.476158142089844,-53.74,4.57,-40.28,67.31
12.498305320739746,-50.74,12.84,-42.89,67.66
12.499505996704102,-47.05,18.95,-41.44,65.49
12.50536298751831,-43.68,21.11,-37.49,61.31
12.516331195831299,-41.55,20.04,-32.89,56.65
12.526759147644043,-40.17,17.94,-25.8,51.0
12.535629272460938,-37.88,16.18,-18.18,45.02
12.5454740524292,-34.28,13.4,-12.44,38.85
12.556162118911743,-29.81,11.23,-9.1,33.12
12.565577983856201,-26.04,9.65,-9.34,29.29
12.57720422744751,-24.05,7.58,-11.56,27.73
12.609302043914795,-24.33,4.16,-13.74,28.24
12.610430240631104,-26.45,-1.77,-14.44,30.18
12.611030101776123,-28.75,-9.91,-15.36,34.06
12.615330219268799,-29.8,-17.32,-15.76,37.89
12.627226114273071,-29.13,-23.6,-14.14,40.06
12.635250091552734,-27.98,-28.82,-11.62,41.81
12.64536428451538,-27.24,-32.3,-9.9,43.39
12.655486106872559,-27.58,-35.23,-8.92,45.62
12.665946006774902,-28.51,-37.23,-8.55,47.66
12.678197145462036,-29.89,-39.73,-7.86,50.33
12.710198163986206,-31.09,-42.58,-6.22,53.08
12.71124815940857,-31.41,-44.57,-4.84,54.74
12.711833000183105,-30.94,-46.04,-4.56,55.65
12.715164184570312,-30.22,-47.47,-5.31,56.52
12.72483205795288,-29.47,-48.71,-6.18,57.26
12.734579086303711,-28.56,-49.14,-6.85,57.24
12.74530029296875,-28.12,-49.49,-7.79,57.45
12.75492000579834,-28.17,-49.13,-8.28,57.23
12.765302181243896,-28.8,-48.58,-8.23,57.07
12.777436256408691,-29.76,-48.47,-8.01,57.43
12.809988975524902,-30.57,-48.35,-8.38,57.81
12.811068058013916,-31.41,-49.01,-9.89,59.04
12.811631202697754,-31.06,-49.6,-11.15,59.57
12.815651178359985,-28.99,-49.6,-10.76,58.44
12.826537132263184,-24.24,-48.78,-7.62,55.0
12.83482813835144,-15.17,-43.84,-0.19,46.39
12.844911098480225,-3.92,-42.87,7.93,43.77
12.85449504852295,7.84,-47.66,13.23,50.07
12.865239143371582,19.9,-52.6,17.33,58.84
12.876964092254639,35.34,-51.86,20.71,66.08
12.909027099609375,48.71,-43.76,28.03,71.22
12.910125255584717,53.24,-40.33,35.13,75.46
12.910752296447754,52.98,-41.7,37.89,77.33
12.915040016174316,53.21,-42.45,38.89,78.39
12.926306247711182,53.03,-43.67,36.03,77.57
12.934889316558838,50.49,-44.8,30.35,74.0
12.944637298583984,45.53,-43.71,23.23,67.25
12.965259075164795,40.07,-42.7,14.81,60.4
12.966187000274658,34.54,-43.36,7.97,56.0
12.976373195648193,27.15,-44.93,4.05,52.65
13.009263038635254,17.86,-47.41,1.63,50.68
13.010329246520996,8.4,-50.27,-0.25,50.96
13.010908126831055,0.35,-52.93,-0.33,52.93
13.014228105545044,-4.48,-52.04,0.72,52.23
13.03253698348999,-7.82,-50.23,1.49,50.85
13.034714221954346,-10.96,-48.65,1.77,49.9
13.044260025024414,-13.56,-47.03,0.76,48.95
13.054736137390137,-15.29,-45.9,-1.53,48.4
13.064269065856934,-15.86,-46.24,-4.97,49.13
13.075428009033203,-16.14,-46.37,-6.86,49.57
13.108996152877808,-16.58,-47.7,-7.47,51.04
13.110056161880493,-16.98,-49.11,-6.77,52.4
13.11064100265503,-18.3,-50.41,-5.09,53.86
13.114184141159058,-19.65,-50.61,-2.72,54.35
13.12640118598938,-20.78,-50.12,-0.7,54.26
13.134494304656982,-20.74,-48.71,0.95,52.95
13.150024175643921,-20.42,-46.83,1.08,51.09
13.153979301452637,-20.81,-45.59,-0.3,50.11
13.164234161376953,-21.17,-44.52,-2.39,49.35
13.174623012542725,-21.49,-42.67,-3.33,47.89
13.210047245025635,-22.12,-39.38,-3.76,45.32
13.211158275604248,-22.8,-36.04,-4.41,42.87
13.211786270141602,-22.97,-31.95,-4.47,39.6
13.214154243469238,-23.73,-28.61,-3.92,37.37
13.223950147628784,-24.19,-25.4,-2.72,35.18
13.235220193862915,-23.99,-23.54,-2.86,33.73
13.248722076416016,-23.4,-20.4,-3.6,31.25
13.25391411781311,-24.94,-16.59,-6.75,30.7
13.264058113098145,-32.17,-12.12,-10.51,35.94
13.274468183517456,-41.75,-6.57,-15.22,44.92
13.30909514427185,-49.95,-3.56,-19.93,53.89
13.310135126113892,-52.24,-2.85,-21.73,56.65
13.31073808670044,-49.03,-4.7,-24.85,55.16
13.313613176345825,-47.39,-8.33,-30.1,56.75
13.324396133422852,-51.28,-8.89,-32.02,61.1
13.333843231201172,-54.97,-8.32,-31.85,64.07
13.344417095184326,-55.79,-7.38,-34.35,65.93
13.353694200515747,-55.48,-1.59,-38.27,67.41
13.363775253295898,-52.26,6.67,-41.07,66.8
13.374272108078003,-47.79,14.59,-42.31,65.47
13.400102138519287,-44.54,20.45,-42.3,64.74
13.400963306427002,-41.86,23.36,-38.98,61.78
13.403074264526367,-38.85,23.3,-35.07,57.28
13.417770147323608,-35.01,23.11,-32.19,52.87
13.424117088317871,-31.7,21.39,-29.47,48.27
13.434772968292236,-28.75,18.55,-25.37,42.59
13.443493127822876,-25.59,15.36,-21.43,36.74
13.453740119934082,-22.88,12.42,-17.54,31.39
13.4635751247406,-22.09,8.43,-14.5,27.73
13.474002122879028,-24.02,3.0,-13.69,27.8
13.496084213256836,-27.23,-3.36,-14.29,30.93
13.496949195861816,-29.89,-10.19,-15.52,35.18
13.503384113311768,-29.63,-14.67,-15.94,36.7
13.513810157775879,-27.53,-18.83,-15.46,36.76
13.523288249969482,-26.92,-24.61,-14.81,39.36
13.53369426727295,-28.1,-30.27,-14.35,43.72
13.543893098831177,-30.31,-35.65,-13.51,48.7
13.565524101257324,-32.06,-39.93,-11.77,52.54
13.566749095916748,-32.03,-41.65,-9.02,53.31
13.574095249176025,-31.51,-43.38,-6.74,54.03
13.609012126922607,-31.04,-45.03,-5.67,54.98
13.609723091125488,-30.89,-46.48,-5.61,56.08
13.61054801940918,-30.74,-47.5,-6.4,56.93
13.613304138183594,-29.81,-48.08,-6.05,56.89
13.62329912185669,-28.08,-49.02,-5.31,56.74
13.637746095657349,-26.11,-49.14,-5.35,55.9
13.64350414276123,-25.11,-47.62,-5.45,54.1
13.653195142745972,-25.58,-45.56,-5.59,52.54
13.663010120391846,-27.11,-44.28,-6.19,52.28
13.673724174499512,-29.48,-43.37,-7.26,52.94
13.708277225494385,-31.2,-42.29,-9.22,53.35
13.710015296936035,-30.46,-42.65,-10.04,53.36
13.722581148147583,-26.42,-43.23,-9.41,51.53
13.723859310150146,-18.56,-44.71,-7.34,48.96
13.74030613899231,-7.91,-46.65,-3.4,47.43
13.752373218536377,4.25,-49.88,-0.11,50.06
13.756810188293457,14.25,-52.05,9.56,54.8
13.75767707824707,22.23,-53.52,21.58,61.84
13.762646198272705,31.38,-49.89,31.29,66.72
13.774429321289062,39.02,-44.1,36.88,69.48
13.808557033538818,42.58,-44.5,39.68,73.26
13.809792041778564,45.89,-45.75,42.3,77.38
13.810465097427368,49.45,-47.55,41.59,80.22
13.812546253204346,51.04,-53.14,35.33,81.71
13.82262897491455,49.72,-56.47,29.63,80.86
13.833733081817627,42.57,-57.32,25.48,75.8
13.843130111694336,30.89,-57.2,21.6,68.5
13.852681159973145,18.61,-56.27,15.31,61.21
13.862711191177368,7.26,-55.33,6.83,56.22
13.873622179031372,-2.35,-55.69,-0.07,55.73
13.907357215881348,-9.82,-55.2,-2.46,56.12
13.908759117126465,-15.04,-52.62,-1.98,54.76
13.909370183944702,-18.25,-48.27,-1.1,51.61
13.912314176559448,-20.9,-45.29,-1.02,49.89
13.922271251678467,-22.09,-44.23,-2.91,49.52
13.933833122253418,-21.42,-42.39,-5.62,47.82
13.94373607635498,-21.61,-40.33,-6.81,46.25
13.952529191970825,-22.78,-39.79,-6.48,46.3
13.962411165237427,-23.88,-40.99,-5.13,47.71
13.972731113433838,-24.23,-43.0,-3.27,49.46
14.00659704208374,-23.93,-45.19,-1.52,51.15
14.008217096328735,-22.99,-47.15,-0.26,52.45
14.00881814956665,-21.8,-47.76,0.38,52.5
14.012020111083984,-21.36,-46.3,0.62,50.99
14.022324085235596,-22.18,-44.85,-0.58,50.03
14.03244400024414,-22.54,-43.63,-2.78,49.18
14.043782234191895,-22.62,-42.25,-3.85,48.07
14.05224323272705,-22.78,-40.1,-4.84,46.37
14.062311172485352,-22.85,-36.84,-5.1,43.64
14.072667121887207,-23.02,-32.75,-4.3,40.26
14.094865322113037,-23.29,-28.61,-3.56,37.06
14.096549034118652,-22.9,-24.96,-2.95,34.0
14.102046012878418,-22.87,-23.53,-3.02,32.95
14.120854139328003,-23.58,-19.63,-4.37,30.99
14.122035026550293,-24.32,-14.65,-6.41,29.1
14.13289499282837,-23.81,-10.89,-9.24,27.76
14.141892194747925,-23.6,-7.98,-14.57,28.86
14.152279138565063,-29.56,-4.88,-20.85,36.5
14.161993980407715,-41.5,0.99,-22.89,47.4
14.172499179840088,-52.29,4.96,-23.21,57.42
14.206526279449463,-56.7,6.87,-22.16,61.26
14.208221197128296,-55.34,7.0,-20.63,59.47
14.208878993988037,-53.02,4.55,-19.42,56.64
14.211740016937256,-52.69,1.81,-19.23,56.11
14.222015142440796,-55.33,-1.76,-21.04,59.22
14.23202919960022,-58.21,-4.84,-21.78,62.33
14.24383020401001,-56.46,-3.22,-21.95,60.66
14.252384185791016,-52.34,4.6,-24.65,58.03
14.262142181396484,-50.29,13.53,-26.19,58.29
14.27231216430664,-49.28,20.06,-24.02,58.37
14.30698823928833,-47.42,23.85,-20.51,56.9
14.308719158172607,-44.1,22.86,-19.76,53.45
14.309357166290283,-40.08,19.82,-19.55,48.8
14.311881065368652,-35.99,15.89,-17.19,42.93
14.321351051330566,-31.28,12.52,-14.28,36.59
14.331774234771729,-26.93,10.17,-11.11,30.85
14.341573238372803,-24.42,7.3,-7.98,26.7
14.351653099060059,-24.9,3.15,-6.6,25.95
14.361592292785645,-28.13,-2.14,-6.29,28.9
14.372491121292114,-31.38,-7.94,-7.0,33.11
14.39368724822998,-32.35,-13.4,-8.62,36.06
14.39540410041809,-31.16,-18.09,-9.22,37.19
14.402754306793213,-29.83,-22.7,-7.97,38.32
14.419664144515991,-29.67,-27.61,-6.64,41.06
14.42134428024292,-30.34,-32.4,-5.26,44.69
14.431560039520264,-30.82,-36.12,-4.32,47.67
14.44233512878418,-30.82,-38.11,-4.47,49.21
14.456301212310791,-31.09,-39.69,-5.45,50.71
14.46111011505127,-31.34,-41.37,-6.16,52.26
14.472053050994873,-30.87,-43.2,-6.86,53.53
14.493628978729248,-29.98,-44.95,-7.63,54.56
14.506716251373291,-28.96,-46.35,-7.41,55.15
14.507909297943115,-27.95,-47.36,-6.55,55.38
14.511054992675781,-27.06,-47.67,-5.56,55.09
14.521097183227539,-26.62,-47.6,-4.31,54.7
14.531317234039307,-26.5,-47.44,-3.96,54.48
14.542209148406982,-27.0,-46.62,-5.06,54.11
14.5509033203125,-28.41,-45.72,-6.71,54.24
14.560809135437012,-29.44,-45.56,-8.47,54.9
14.571569204330444,-28.87,-47.36,-9.85,56.33
14.601197242736816,-26.37,-49.58,-9.65,56.97
14.602628231048584,-20.3,-48.45,-6.29,52.9
14.603279113769531,-12.07,-44.86,-0.13,46.45
14.611277103424072,-2.97,-43.17,9.05,44.2
14.635369300842285,6.17,-45.11,18.6,49.18
14.636502265930176,17.24,-50.31,24.23,58.44
14.640736103057861,32.58,-49.43,26.31,64.78
14.651746273040771,45.15,-42.87,32.06,70.03
14.668498992919922,49.85,-39.57,36.87,73.55
14.67196798324585,52.13,-41.35,37.59,76.42
14.705773115158081,57.02,-42.73,36.38,80.0
14.707159042358398,59.7,-43.52,34.07,81.35
14.70792007446289,57.96,-46.38,28.89,79.65
14.710617065429688,53.36,-49.44,23.13,76.33
14.720797061920166,45.26,-51.64,16.63,70.65
14.730818271636963,33.16,-52.77,9.8,63.08
14.740703105926514,18.88,-52.7,4.44,56.15
14.752092123031616,5.75,-52.12,0.69,52.44
14.760820150375366,-4.11,-51.73,-1.29,51.9
14.771650314331055,-10.57,-50.88,-1.59,51.99
14.805041313171387,-14.08,-49.47,-1.02,51.44
14.80643916130066,-15.24,-47.22,-0.63,49.62
14.807082176208496,-15.62,-44.26,-0.47,46.93
14.810702085494995,-16.1,-43.61,-1.64,46.51
14.820454120635986,-16.0,-43.64,-3.15,46.58
14.830628156661987,-16.26,-43.49,-4.19,46.61
14.840384006500244,-17.29,-44.3,-4.54,47.77
14.851572036743164,-18.3,-45.92,-3.06,49.52
14.860251188278198,-19.52,-48.35,-0.62,52.14
14.871490001678467,-20.75,-50.8,2.66,54.93
14.892820119857788,-21.92,-53.02,5.73,57.65
14.894509315490723,-23.43,-54.55,8.18,59.92
14.900090217590332,-24.02,-54.41,8.88,60.13
14.910239219665527,-25.12,-52.38,7.7,58.6
14.920598030090332,-27.76,-49.63,5.24,57.1
14.930276155471802,-29.97,-45.96,2.86,54.94
14.949892044067383,-30.76,-42.19,0.69,52.21
14.952036142349243,-30.32,-38.95,-0.22,49.36
14.960389137268066,-29.07,-35.43,-0.15,45.82
14.971150159835815,-27.7,-31.18,0.49,41.7
15.00444221496582,-25.93,-26.4,0.38,37.0
15.005458116531372,-25.3,-25.08,-0.81,35.63
15.006604194641113,-26.29,-24.98,-0.97,36.27
15.01079511642456,-27.12,-21.3,-3.51,34.66
15.020299196243286,-29.97,-16.36,-9.51,35.44
15.030479192733765,-35.98,-10.24,-14.08,39.97
15.039795160293579,-44.26,-7.07,-18.43,48.46
15.051407098770142,-52.13,-5.99,-18.61,55.67
15.0609712600708,-55.97,-5.58,-16.02,58.48
15.071343183517456,-57.6,-4.79,-16.32,60.05
15.109496116638184,-61.47,-3.74,-18.36,64.26
15.11093020439148,-65.72,0.17,-18.8,68.35
15.111589193344116,-68.99,2.72,-19.3,71.69
15.11227798461914,-71.31,6.11,-20.9,74.56
15.127074241638184,-70.64,12.64,-21.3,74.85
15.12967824935913,-67.16,22.02,-25.28,75.06
15.141528129577637,-63.39,31.9,-33.76,78.58
15.150748252868652,-59.46,34.15,-39.16,78.96
15.16002607345581,-53.27,27.55,-34.14,69.0
15.170494079589844,-45.2,19.16,-20.22,53.09
15.204331159591675,-37.7,13.57,-9.46,41.16
15.205238103866577,-32.03,10.67,-6.93,34.46
15.206375122070312,-29.18,8.64,-5.54,30.93
15.210679054260254,-27.66,6.21,-2.31,28.44
15.21943712234497,-25.62,4.78,-0.47,26.06
15.229552268981934,-23.88,2.84,-1.01,24.06
15.239545106887817,-24.45,-0.57,-2.47,24.58
15.25072431564331,-27.5,-5.95,-4.13,28.43
15.261555194854736,-31.36,-13.89,-6.99,35.0
15.270239114761353,-32.22,-20.2,-9.25,39.13
15.29202127456665,-29.84,-23.58,-10.19,39.37
15.293636322021484,-27.76,-27.36,-10.19,40.28
15.300240993499756,-27.01,-30.92,-9.82,42.21
15.321887969970703,-27.5,-34.96,-8.96,45.37
15.32273530960083,-28.43,-38.6,-8.06,48.61
15.329763174057007,-29.07,-41.13,-7.3,50.89
15.339384078979492,-29.04,-41.84,-6.73,51.37
15.349868297576904,-29.11,-42.38,-6.46,51.81
15.366453170776367,-29.34,-42.77,-6.48,52.26
15.3699631690979,-29.71,-43.55,-6.72,53.14
15.40370512008667,-29.96,-44.99,-7.44,54.56
15.405617237091064,-29.43,-45.97,-8.02,55.16
15.406284093856812,-28.64,-46.21,-8.3,54.99
15.4100661277771,-28.15,-46.96,-8.66,55.43
15.433017253875732,-28.07,-47.4,-8.92,55.8
15.434725284576416,-28.44,-47.52,-9.11,56.12
15.439186096191406,-29.24,-48.09,-9.79,57.12
15.449319124221802,-30.51,-49.07,-11.19,58.85
15.460854053497314,-31.01,-50.75,-13.03,60.88
15.469778060913086,-29.66,-51.44,-12.99,60.78
15.503166198730469,-23.03,-50.73,-10.28,56.65
15.505359172821045,-9.76,-49.45,-7.05,50.89
15.50599217414856,3.48,-53.48,1.27,53.6
15.50971508026123,11.41,-63.26,15.65,66.15
15.518696308135986,24.21,-65.83,27.88,75.47
15.529075145721436,44.93,-60.4,29.28,80.77
15.550242185592651,57.42,-58.2,30.59,87.29
15.551139116287231,58.44,-57.12,36.54,89.51
15.56755018234253,58.29,-55.43,33.66,87.19
15.570277214050293,58.37,-56.04,27.55,85.47
15.591509103775024,56.76,-57.56,23.87,84.28
15.593594074249268,52.3,-59.17,21.83,81.93
15.598855018615723,44.31,-60.51,19.21,77.42
15.608877182006836,32.4,-60.89,14.14,70.4
15.619961261749268,17.65,-59.94,6.86,62.86
15.628964185714722,2.51,-58.85,0.37,58.9
15.638683319091797,-9.84,-58.17,-3.05,59.07
15.648621082305908,-17.7,-57.51,-4.67,60.35
15.66689920425415,-21.78,-57.15,-5.22,61.38
15.669801235198975,-22.84,-54.39,-4.99,59.2
15.70367431640625,-23.38,-51.37,-6.41,56.8
15.719741106033325,-24.03,-48.11,-9.92,54.68
15.720909118652344,-23.92,-44.35,-12.82,51.99
15.722095966339111,-23.12,-41.24,-13.97,49.29
15.722798109054565,-21.67,-38.92,-12.94,46.38
15.742851257324219,-20.81,-38.88,-10.31,45.28
15.743534088134766,-20.8,-41.92,-6.61,47.26
15.758233070373535,-20.9,-45.88,-1.95,50.45
15.759444236755371,-20.61,-48.04,2.42,52.33
15.774556159973145,-20.63,-49.59,5.01,53.94
15.815392017364502,-20.34,-49.05,6.23,53.46
15.816752195358276,-20.91,-48.06,5.33,52.68
15.817403316497803,-21.6,-45.79,2.86,50.7
15.818088054656982,-22.43,-43.62,-0.19,49.04
15.824748992919922,-23.08,-40.8,-3.07,46.97
15.828253269195557,-22.77,-36.62,-4.96,43.4
15.841454029083252,-22.18,-32.49,-5.57,39.73
15.848398208618164,-22.05,-28.97,-4.68,36.7
15.858410120010376,-21.18,-26.05,-3.44,33.74
15.869036197662354,-20.23,-24.5,-3.34,31.94
15.890551090240479,-21.87,-22.39,-3.48,31.49
15.892263174057007,-24.11,-17.27,-3.66,29.88
15.898571968078613,-25.59,-11.63,-4.76,28.5
15.920295238494873,-26.32,-8.51,-9.34,29.19
15.922035217285156,-29.47,-11.46,-18.36,36.56
15.927954196929932,-35.56,-10.72,-23.39,43.89
15.938323974609375,-44.42,-7.69,-24.42,51.26
15.948172092437744,-51.78,-6.2,-22.85,56.93
15.967854976654053,-55.63,-6.71,-24.64,61.21
15.970399141311646,-57.94,-3.39,-26.52,63.81
15.990453243255615,-60.03,1.6,-26.62,65.68
15.992311000823975,-63.94,5.89,-27.12,69.7
15.998231172561646,-67.27,8.14,-25.97,72.56
16.019663095474243,-67.59,11.21,-26.19,73.34
16.020788192749023,-65.43,14.92,-24.5,71.44
16.028369188308716,-60.67,17.86,-22.11,66.99
16.037849187850952,-54.63,19.78,-19.19,61.18
16.04840326309204,-49.45,19.14,-16.46,55.52
16.05782413482666,-45.64,15.91,-13.3,50.13
16.06861925125122,-42.11,11.24,-8.72,44.44
16.089744091033936,-37.17,7.57,-4.25,38.17
16.091370105743408,-31.92,5.3,-2.41,32.44
16.098069190979004,-28.16,3.14,-2.6,28.45
16.108625173568726,-26.43,1.88,-3.08,26.67
16.11862802505493,-26.6,0.9,-3.1,26.79
16.127602100372314,-28.36,-1.55,-4.4,28.74
16.138920307159424,-31.45,-7.17,-7.71,33.16
16.14760398864746,-35.03,-15.01,-10.03,39.4
16.1589412689209,-36.54,-21.88,-10.67,43.9
16.168321132659912,-35.31,-27.57,-11.58,46.27
16.189491271972656,-32.94,-31.96,-12.6,47.59
16.191110134124756,-31.71,-36.07,-12.74,49.68
16.198163986206055,-31.88,-40.47,-11.43,52.77
16.20995807647705,-32.28,-44.47,-8.81,55.65
16.21843409538269,-31.92,-47.77,-6.4,57.8
16.228572130203247,-30.97,-50.17,-5.06,59.17
16.236968994140625,-30.17,-51.24,-4.73,59.65
16.250609159469604,-30.02,-51.87,-5.35,60.16
16.257262229919434,-30.14,-52.41,-6.38,60.79
16.268866062164307,-29.84,-51.71,-7.21,60.13
16.303620100021362,-29.74,-51.3,-8.27,59.87
16.305029153823853,-29.99,-51.15,-8.89,59.95
16.305658102035522,-30.36,-51.22,-9.07,60.22
16.309768199920654,-30.53,-51.99,-8.92,60.94
16.31732702255249,-30.79,-52.7,-8.02,61.56
16.32770299911499,-31.94,-54.52,-7.99,63.69
16.33735227584839,-32.25,-54.59,-7.97,63.9
16.34838104248047,-29.63,-51.26,-5.93,59.5
16.357349157333374,-23.51,-46.84,-0.99,52.41
16.36789608001709,-13.14,-44.44,5.51,46.66
16.40376615524292,0.15,-47.89,9.03,48.73
16.406647205352783,12.76,-57.95,14.87,61.17
16.420924186706543,30.23,-59.87,25.47,71.74
16.422712087631226,52.46,-51.36,25.47,77.7
16.42354917526245,61.3,-44.8,18.8,78.21
16.42819619178772,60.22,-41.45,13.36,74.31
16.442399978637695,62.27,-40.72,8.61,74.89
16.446965217590332,66.85,-40.72,2.01,78.3
16.467710971832275,68.59,-42.42,-3.5,80.72
16.469650268554688,64.18,-43.23,-7.13,77.7
16.50240421295166,54.86,-44.54,-9.07,71.24
16.503807067871094,43.45,-47.05,-6.49,64.37
16.50445032119751,29.87,-49.63,-0.77,57.93
16.50878119468689,16.51,-50.57,5.72,53.5
16.525750160217285,6.22,-51.72,8.53,52.78
16.52846097946167,-0.93,-53.61,7.13,54.09
16.536949157714844,-6.09,-54.13,3.99,54.61
16.546775102615356,-10.22,-53.16,0.32,54.13
16.55671215057373,-13.47,-51.75,-2.81,53.54
16.567695140838623,-16.18,-50.77,-5.09,53.52
16.60837411880493,-18.41,-49.95,-6.49,53.62
16.60996103286743,-19.87,-48.63,-7.15,53.01
16.61059808731079,-20.6,-47.77,-7.25,52.52
16.61122417449951,-20.81,-47.22,-6.46,52.0
16.636850118637085,-21.19,-48.04,-5.28,52.77
16.63804817199707,-21.3,-50.17,-3.23,54.59
16.64197301864624,-21.18,-52.56,-0.51,56.66
16.646591186523438,-21.64,-54.21,1.35,58.38
16.658878087997437,-22.28,-55.21,1.62,59.55
16.66754412651062,-22.74,-54.83,0.6,59.36
16.689350128173828,-23.59,-52.58,0.07,57.62
16.703114986419678,-25.13,-50.03,-0.02,55.98
16.704276084899902,-26.94,-47.46,-0.77,54.57
16.706497192382812,-28.04,-45.09,-1.47,53.11
16.716742038726807,-27.97,-41.7,-2.0,50.25
16.72655200958252,-26.93,-36.98,-2.37,45.8
16.736847162246704,-26.13,-31.92,-2.25,41.31
16.746225118637085,-26.22,-26.41,-1.46,37.24
16.756535053253174,-28.27,-20.6,-0.61,34.98
16.76731514930725,-31.05,-17.75,-0.02,35.76
16.801802158355713,-31.68,-16.47,-2.86,35.81
16.803317070007324,-32.25,-16.13,-10.23,37.48
16.804004192352295,-35.25,-12.79,-17.07,41.2
16.821367263793945,-43.35,-9.45,-20.19,48.74
16.82245111465454,-54.06,-9.55,-20.69,58.66
16.826909065246582,-61.48,-8.49,-18.99,64.9
16.83675718307495,-64.85,-6.15,-17.14,67.35
16.846131086349487,-66.32,-4.34,-16.3,68.43
16.86342430114746,-66.64,0.62,-17.12,68.8
16.8666672706604,-67.04,1.31,-20.78,70.19
16.889387130737305,-66.77,3.82,-22.16,70.45
16.904054164886475,-64.95,10.3,-23.6,69.86
16.917989253997803,-61.62,17.79,-22.8,68.06
16.91870927810669,-58.13,23.9,-21.27,66.35
16.9324791431427,-55.11,26.48,-20.06,64.34
16.93355131149292,-52.18,26.05,-16.5,60.61
16.953278064727783,-48.5,22.95,-13.18,55.25
16.965241193771362,-43.67,18.77,-9.23,48.42
16.966320037841797,-38.36,14.05,-5.11,41.17
16.968276977539062,-33.36,10.14,-1.99,34.92
16.986133098602295,-29.67,6.51,-1.15,30.39
16.987608194351196,-27.92,3.03,-1.32,28.11
16.99581217765808,-27.93,-0.07,-1.92,27.99
17.006021976470947,-28.97,-4.07,-3.02,29.4
17.0158851146698,-30.78,-10.42,-4.64,32.82
17.034049034118652,-32.04,-17.23,-6.55,36.96
17.035909175872803,-31.76,-22.77,-7.39,39.77
17.05173397064209,-30.24,-26.99,-7.72,41.26
17.05586004257202,-28.83,-30.51,-8.27,42.78
17.066702127456665,-28.33,-33.72,-8.68,44.88
17.096549034118652,-28.58,-36.69,-8.71,47.31
17.098186016082764,-29.39,-40.04,-7.93,50.29
17.09882616996765,-29.65,-42.48,-6.56,52.21
17.11796998977661,-29.29,-43.91,-5.46,53.06
17.11961603164673,-28.51,-45.46,-4.93,53.88
17.135086059570312,-27.26,-45.59,-4.6,53.31
17.137020111083984,-26.92,-45.54,-5.36,53.17
17.1455020904541,-27.02,-45.25,-6.1,53.05
17.16781520843506,-27.48,-45.0,-7.0,53.18
17.16968297958374,-28.09,-44.99,-7.58,53.57
17.211377143859863,-28.47,-45.33,-8.07,54.13
17.224459171295166,-29.05,-45.57,-8.62,54.72
17.225796222686768,-29.78,-45.91,-9.17,55.48
17.227476119995117,-30.21,-46.06,-10.18,56.01
17.228798151016235,-30.23,-47.47,-11.92,57.52
17.230140209197998,-27.44,-46.59,-12.47,55.48
17.235247135162354,-20.28,-41.75,-11.39,47.79
17.25132131576538,-9.65,-39.32,-8.46,41.36
17.255807161331177,1.85,-44.41,-3.34,44.57
17.269750118255615,11.95,-52.96,0.87,54.29
17.309903144836426,20.97,-56.78,3.19,60.61
17.322871208190918,31.87,-53.5,1.66,62.29
17.33649730682373,41.77,-46.72,-1.94,62.69
17.337600231170654,46.87,-45.04,-1.92,65.03
17.342391967773438,50.13,-45.62,-1.37,67.79
17.3540940284729,54.69,-46.11,-0.94,71.54
17.359318256378174,59.18,-48.41,-1.04,76.46
17.3711941242218,59.67,-50.08,-2.73,77.94
17.37570810317993,54.49,-51.11,-4.85,74.86
17.388585090637207,45.29,-51.79,-7.7,69.22
17.40297222137451,34.02,-50.68,-10.09,61.86
17.404146194458008,21.3,-48.96,-10.76,54.46
17.40885829925537,8.51,-47.89,-10.07,49.67
17.40970015525818,-2.43,-45.71,-10.41,46.94
17.425562143325806,-12.34,-47.37,-11.32,50.24
17.426193237304688,-19.87,-46.32,-11.57,51.71
17.442151069641113,-23.82,-43.49,-10.53,50.69
17.444817066192627,-24.9,-40.9,-9.65,48.84
17.46915626525879,-24.11,-38.11,-8.83,45.95
17.471024990081787,-22.73,-34.86,-8.62,42.49
17.498180150985718,-22.32,-34.13,-7.42,41.44
17.499802112579346,-22.19,-34.49,-4.71,41.28
17.50043821334839,-21.89,-35.15,-2.12,41.46
17.504573106765747,-22.08,-37.56,-0.78,43.57
17.51483726501465,-22.63,-40.66,0.02,46.53
17.525341987609863,-23.32,-43.02,0.52,48.93
17.534959316253662,-24.21,-44.98,0.04,51.08
17.54778003692627,-25.1,-45.33,-0.61,51.81
17.554530143737793,-25.53,-43.38,-0.55,50.33
17.56849718093872,-27.55,-41.94,-0.79,50.18
17.611966133117676,-28.87,-36.98,-0.84,46.92
17.62583827972412,-29.46,-32.83,-0.53,44.11
17.63833212852478,-29.28,-29.57,0.57,41.61
17.640506267547607,-28.09,-26.97,0.98,38.95
17.653919219970703,-26.53,-24.87,0.66,36.37
17.65903115272522,-25.27,-23.06,-0.2,34.21
17.65968132019043,-25.85,-19.61,-0.88,32.45
17.67620611190796,-28.81,-15.15,1.82,32.6
17.67725896835327,-28.25,-8.52,2.81,29.64
17.69236421585083,-24.09,-1.93,-4.28,24.54
17.70542001724243,-23.83,0.59,-14.57,27.93
17.70873212814331,-29.13,2.06,-15.45,33.03
17.709402084350586,-38.25,3.82,-10.63,39.88
17.725611209869385,-46.67,4.92,-10.2,48.02
17.726545095443726,-51.42,7.94,-12.28,53.45
17.742427110671997,-55.51,12.41,-11.64,58.05
17.755131244659424,-61.19,14.37,-9.65,63.59
17.756209135055542,-65.21,16.27,-9.84,67.92
17.77051305770874,-66.88,19.38,-9.67,70.29
17.78539514541626,-65.94,19.68,-9.78,69.5
17.8159441947937,-61.46,19.77,-9.97,65.32
17.82895016670227,-55.21,22.4,-9.98,60.41
17.84221315383911,-50.02,24.87,-9.39,56.64
17.854788303375244,-46.75,25.63,-6.79,53.74
17.858753204345703,-44.94,24.11,-3.0,51.08
17.859419107437134,-43.19,22.26,0.65,48.59
17.875895977020264,-40.63,20.17,2.15,45.41
17.88813614845276,-36.93,17.72,1.9,41.0
17.892860174179077,-32.68,14.77,1.22,35.88
17.894493103027344,-28.83,10.7,0.92,30.76
17.934521198272705,-26.04,7.08,1.47,27.02
17.935739040374756,-24.8,3.77,2.33,25.19
17.93632411956787,-25.25,-0.02,1.96,25.32
17.942017078399658,-27.79,-4.71,0.87,28.19
17.942724227905273,-31.39,-10.49,-0.1,33.09
17.958977222442627,-34.61,-16.43,-0.63,38.31
17.95987606048584,-35.9,-21.66,-1.26,41.94
17.975597143173218,-35.07,-25.27,-2.82,43.31
17.97650718688965,-33.86,-28.88,-4.58,44.73
17.9931902885437,-33.52,-32.47,-5.71,47.01
18.006093978881836,-33.85,-35.82,-5.77,49.62
18.008808135986328,-34.12,-39.16,-5.8,52.26
18.009517192840576,-33.83,-41.5,-6.19,53.89
18.025716304779053,-33.22,-43.56,-6.31,55.14
18.02666211128235,-32.31,-44.55,-5.1,55.26
18.04189109802246,-31.41,-44.41,-4.69,54.59
18.042734146118164,-30.88,-44.15,-5.88,54.19
18.058366298675537,-30.89,-43.51,-7.45,53.87
18.059068202972412,-31.48,-42.93,-8.62,53.92
18.07718801498413,-32.18,-42.34,-9.06,53.94
18.090209007263184,-33.02,-42.79,-9.23,54.83
18.092294216156006,-32.96,-42.99,-9.78,55.04
18.093810081481934,-32.78,-43.6,-10.54,55.55
18.103621006011963,-31.99,-43.72,-11.58,55.39
18.11381196975708,-29.25,-42.15,-11.95,52.67
18.123939990997314,-23.12,-38.15,-7.75,45.27
18.133655071258545,-12.54,-36.92,-3.63,39.16
18.144500255584717,0.29,-40.14,1.38,40.16
18.154623985290527,10.25,-46.14,3.58,47.4
18.168657302856445,16.29,-53.41,0.9,55.84
18.210654258728027,26.4,-50.3,-1.53,56.82
18.224071979522705,38.49,-42.83,-0.77,57.58
18.23864507675171,46.19,-42.02,2.31,62.48
18.255086183547974,51.61,-43.22,3.58,67.41
18.268556118011475,57.07,-43.34,1.92,71.68
18.281536102294922,59.53,-46.5,-2.45,75.57
18.28263521194458,59.84,-50.13,-6.27,78.31
18.292888164520264,57.47,-52.0,-10.24,78.17
18.304543018341064,50.48,-51.71,-13.74,73.55
18.320240020751953,38.68,-49.04,-16.24,64.53
18.345917224884033,24.5,-45.79,-16.83,54.59
18.358633041381836,11.77,-43.76,-14.84,47.68
18.35989212989807,1.83,-41.92,-11.5,43.5
18.361355304718018,-6.3,-42.98,-8.34,44.23
18.36242413520813,-12.32,-44.58,-5.08,46.52
18.364086151123047,-16.97,-46.16,-3.28,49.28
18.365437030792236,-20.0,-45.55,-2.07,49.79
18.36680507659912,-21.49,-42.95,-1.86,48.06
18.3681161403656,-22.01,-40.87,-2.99,46.51
18.37009310722351,-22.75,-39.62,-4.16,45.87
18.384993076324463,-24.52,-38.19,-4.55,45.61
18.386670112609863,-26.54,-37.45,-4.18,46.09
18.392991065979004,-27.61,-38.37,-2.59,47.34
18.40410614013672,-27.49,-40.73,-0.85,49.14
18.4188232421875,-26.83,-43.14,0.44,50.8
18.422680139541626,-26.28,-44.72,0.77,51.87
18.4332332611084,-26.08,-46.22,-0.69,53.07
18.443348169326782,-26.42,-46.49,-2.03,53.51
18.452943086624146,-27.44,-44.85,-1.76,52.6
18.464388132095337,-29.04,-41.53,-0.82,50.68
18.484798192977905,-30.54,-37.82,-0.87,48.61
18.48569107055664,-30.49,-35.2,-1.08,46.58
18.502410173416138,-29.49,-33.16,-0.09,44.37
18.504043102264404,-28.25,-29.53,0.12,40.86
18.519240140914917,-27.11,-26.08,0.13,37.61
18.52255630493164,-26.23,-20.67,0.44,33.39
18.53616213798523,-27.48,-14.99,0.22,31.3
18.552674293518066,-30.08,-11.1,-2.31,32.14
18.55415630340576,-31.89,-7.96,-7.15,33.63
18.569993019104004,-33.11,-4.74,-9.3,34.71
18.59662628173828,-34.07,-0.54,-9.5,35.37
18.60944414138794,-36.98,5.91,-13.08,39.66
18.621862173080444,-44.75,9.47,-15.45,48.27
18.623998165130615,-52.41,9.91,-14.07,55.16
18.624754190444946,-55.75,11.91,-13.13,58.5
18.64291524887085,-55.96,13.68,-14.22,59.33
18.643858194351196,-55.79,16.32,-14.65,59.94
18.65892505645752,-56.91,18.39,-15.61,61.81
18.659744262695312,-60.13,18.31,-17.48,65.24
18.68908715248108,-61.93,20.42,-17.88,67.61
18.704041004180908,-60.03,24.46,-18.02,67.28
18.705119132995605,-56.41,28.12,-17.34,65.37
18.706955194473267,-52.94,30.95,-16.15,63.41
18.71855616569519,-49.67,32.31,-15.11,61.15
18.726190090179443,-45.99,31.38,-14.15,57.44
18.727055072784424,-42.34,29.07,-11.49,52.62
18.744002103805542,-39.18,24.95,-8.5,47.22
18.74461817741394,-35.86,19.68,-6.46,41.41
18.76020622253418,-32.7,14.12,-4.45,35.89
18.76267099380493,-29.48,9.14,-3.73,31.08
18.788589000701904,-26.75,4.57,-3.53,27.36
18.78943419456482,-25.12,0.35,-2.42,25.23
18.79182529449463,-25.16,-4.07,-1.81,25.55
18.810993194580078,-26.39,-8.88,-2.71,27.97
18.81300115585327,-28.39,-13.65,-3.46,31.69
18.821766138076782,-29.92,-19.0,-3.65,35.63
18.832151174545288,-29.82,-23.61,-4.81,38.33
18.841679096221924,-28.94,-27.43,-5.47,40.24
18.852647304534912,-28.34,-31.07,-4.84,42.33
18.865198135375977,-27.62,-33.3,-3.24,43.38
18.8968563079834,-27.49,-35.66,-1.26,45.04
18.898014068603516,-26.93,-36.78,0.48,45.58
18.89860200881958,-26.03,-36.83,0.25,45.1
18.902085304260254,-25.64,-37.01,-1.02,45.03
18.923176288604736,-25.55,-36.81,-2.3,44.86
18.924777030944824,-25.62,-36.3,-3.8,44.59
18.931843280792236,-26.3,-36.41,-5.08,45.2
18.941763162612915,-27.37,-37.95,-5.11,47.06
18.95222806930542,-28.16,-39.4,-4.37,48.62
18.9624080657959,-29.07,-40.7,-3.3,50.12
19.005352020263672,-29.34,-41.39,-2.32,50.78
19.02147626876831,-28.4,-40.19,-1.86,49.24
19.034552097320557,-26.91,-39.51,-2.25,47.85
19.03543710708618,-24.05,-39.79,-2.93,46.58
19.043172121047974,-18.22,-39.18,-2.4,43.27
19.044034004211426,-10.06,-38.22,-2.21,39.58
19.060736179351807,-1.61,-40.45,-2.33,40.54
19.073535203933716,7.23,-40.41,0.48,41.05
19.087423086166382,15.31,-36.7,7.97,40.55
19.08919906616211,22.11,-35.57,13.32,43.94
19.117094039916992,28.97,-37.34,15.21,49.64
19.129544258117676,38.07,-33.7,14.88,52.97
19.142226219177246,45.53,-32.34,12.56,57.24
19.154425144195557,49.63,-37.07,9.05,62.6
19.160049200057983,54.42,-38.02,7.3,66.78
19.171669006347656,57.28,-39.73,5.45,69.92
19.176753997802734,57.95,-44.01,2.92,72.82
19.188863277435303,55.27,-47.02,0.08,72.56
19.20463228225708,47.25,-49.77,-2.56,68.67
19.20644998550415,35.66,-51.24,-4.16,62.56
19.221525192260742,21.92,-51.0,-4.9,55.72
19.22234010696411,7.61,-50.06,-5.14,50.89
19.22606110572815,-5.12,-48.96,-4.35,49.41
19.22673797607422,-13.88,-48.05,-3.4,50.13
19.242492198944092,-17.8,-45.8,-2.94,49.22
19.243473052978516,-18.73,-43.03,-3.69,47.07
19.26055908203125,-19.13,-40.75,-4.65,45.25
19.26138710975647,-19.52,-38.59,-5.65,43.61
19.276421070098877,-19.58,-36.56,-6.54,41.98
19.27800416946411,-20.06,-35.85,-7.33,41.72
19.305440187454224,-21.11,-36.15,-6.1,42.3
19.306239128112793,-21.84,-37.31,-3.24,43.35
19.31092619895935,-22.33,-40.07,-1.19,45.88
19.311760187149048,-22.9,-43.4,0.03,49.07
19.326714038848877,-23.09,-45.26,1.06,50.82
19.327577114105225,-23.72,-45.44,1.67,51.28
19.34295415878296,-24.87,-44.73,1.35,51.19
19.343573093414307,-25.92,-43.05,-0.35,50.25
19.359628200531006,-27.28,-40.03,-1.74,48.47
19.36154818534851,-28.63,-36.71,-2.84,46.64
19.388626098632812,-29.39,-32.94,-2.42,44.21
19.389501094818115,-28.6,-30.19,-1.15,41.6
19.390676975250244,-26.16,-28.12,-0.46,38.4
19.400801181793213,-24.02,-26.16,0.13,35.51
19.411851167678833,-23.23,-23.29,-0.2,32.89
19.42582416534424,-23.92,-19.32,0.17,30.74
19.4306001663208,-27.66,-14.92,0.9,31.44
19.44153928756714,-30.55,-12.27,-1.62,32.96
19.450931072235107,-29.5,-7.16,-3.07,30.51
19.463601112365723,-29.52,-2.86,-7.29,30.54
19.494646072387695,-32.47,2.03,-10.4,34.15
19.495651245117188,-39.89,3.21,-9.58,41.14
19.496262073516846,-48.02,3.11,-8.97,48.94
19.500400066375732,-54.19,5.78,-9.04,55.24
19.510712146759033,-60.36,9.79,-7.73,61.63
19.52147912979126,-64.84,13.91,-6.27,66.61
19.530822277069092,-66.7,17.32,-8.28,69.4
19.552048206329346,-67.68,18.6,-10.8,71.01
19.55321717262268,-66.29,20.92,-11.29,70.42
19.570979118347168,-62.3,25.15,-11.99,68.24
19.597272157669067,-57.65,29.55,-13.12,66.09
19.61092519760132,-53.7,32.21,-12.39,63.83
19.62340211868286,-49.49,31.85,-11.41,59.94
19.624272108078003,-45.68,29.29,-9.63,55.11
19.63829803466797,-42.09,25.9,-6.46,49.84
19.63943910598755,-37.58,22.66,-3.9,44.05
19.64337921142578,-33.07,18.3,-0.81,37.8
19.644052982330322,-29.23,14.33,3.15,32.7
19.66137719154358,-27.17,10.17,5.81,29.58
19.66263508796692,-26.56,7.21,5.36,28.03
19.68821620941162,-27.77,4.11,2.71,28.2
19.6890971660614,-30.43,0.02,-0.24,30.43
19.70438003540039,-33.72,-5.64,-3.71,34.38
19.705464124679565,-36.06,-12.75,-5.82,38.68
19.721420288085938,-36.26,-19.33,-6.31,41.57
19.722575187683105,-35.21,-24.81,-7.9,43.79
19.72987127304077,-34.42,-28.03,-9.18,45.32
19.74089813232422,-34.18,-31.12,-8.95,47.08
19.750177145004272,-34.61,-34.71,-7.83,49.63
19.761553287506104,-34.99,-37.82,-5.88,51.85
19.781817197799683,-34.53,-40.42,-4.35,53.33
19.782692193984985,-33.23,-42.57,-4.12,54.16
19.790098190307617,-31.94,-43.23,-5.15,53.99
19.79999828338623,-31.39,-42.87,-6.41,53.51
19.81924819946289,-31.59,-42.89,-7.39,53.77
19.82117509841919,-31.46,-42.64,-7.51,53.51
19.82972526550293,-31.58,-43.05,-7.73,53.94
19.83983325958252,-31.91,-43.66,-7.36,54.57
19.853248119354248,-31.47,-43.34,-7.17,54.03
19.860355138778687,-31.1,-43.56,-8.52,54.19
19.882477283477783,-31.16,-44.16,-10.68,55.09
19.883392095565796,-30.3,-44.59,-12.25,55.28
19.889705181121826,-28.66,-44.39,-11.67,54.11
19.90482807159424,-24.66,-45.01,-9.25,52.14
19.90942096710205,-14.45,-46.93,-4.94,49.35
19.92159128189087,-0.52,-50.41,-0.63,50.41
19.935893058776855,12.86,-52.98,4.53,54.7
19.93937611579895,23.66,-52.17,8.91,57.97
19.953283309936523,31.14,-48.59,9.14,58.43
19.971214294433594,36.63,-42.72,9.19,57.01
19.998663187026978,40.78,-37.48,9.72,56.23
20.013275146484375,43.28,-36.6,6.1,57.0
20.02649712562561,46.54,-37.45,-8.42,60.32
20.039226055145264,50.87,-37.28,-16.21,65.11
20.043984174728394,55.17,-38.08,-24.15,71.25
20.05586528778076,56.02,-37.43,-28.48,73.14
20.060688972473145,52.69,-37.56,-32.69,72.49
20.073597192764282,45.51,-37.13,-36.58,69.19
20.074669122695923,33.68,-38.64,-34.33,61.69
20.089006185531616,19.86,-42.89,-24.9,53.42
20.10365319252014,6.66,-45.73,-9.97,47.27
20.10466718673706,-4.81,-48.27,2.23,48.56
20.10602116584778,-14.22,-50.83,4.6,52.98
20.107760190963745,-20.91,-51.06,-0.29,55.17
20.12117910385132,-25.17,-48.12,-5.04,54.53
20.127126216888428,-27.4,-43.61,-8.04,52.12
20.15242314338684,-28.17,-40.34,-8.89,49.99
20.166052103042603,-27.95,-38.14,-7.85,47.93
20.179455280303955,-27.8,-36.07,-6.41,45.98
20.192612171173096,-27.77,-34.41,-5.31,44.53
20.20568609237671,-26.82,-34.26,-4.09,43.7
20.210124015808105,-25.15,-35.76,-3.42,43.85
20.21100425720215,-24.29,-38.53,-2.68,45.62
20.21226930618286,-23.93,-40.48,-1.64,47.05
20.21358823776245,-23.77,-41.5,-1.12,47.83
20.218895196914673,-23.68,-41.64,-0.6,47.9
20.23616313934326,-23.53,-39.97,0.7,46.38
20.238811016082764,-24.21,-37.81,1.49,44.92
20.249451160430908,-26.35,-35.19,1.21,43.97
20.259571075439453,-28.66,-31.13,1.07,42.32
20.292870044708252,-29.05,-27.66,0.13,40.11
20.294186115264893,-27.49,-24.99,-1.02,37.16
20.294846057891846,-25.69,-23.34,-1.08,34.72
20.298645973205566,-24.46,-19.58,-0.2,31.33
20.308922290802002,-24.3,-16.2,-1.77,29.25
20.319578170776367,-23.75,-11.6,-2.89,26.58
20.328783988952637,-21.66,-4.93,-5.33,22.84
20.33875608444214,-23.3,-1.41,-11.25,25.91
20.34891128540039,-29.54,2.95,-15.93,33.69
20.370512008666992,-35.51,8.49,-19.51,41.39
20.396390199661255,-38.18,12.24,-22.46,45.95
20.410396099090576,-40.18,11.92,-26.41,49.53
20.42408800125122,-43.25,11.23,-27.59,52.51
20.425028085708618,-46.81,11.67,-28.26,55.91
20.43868112564087,-51.07,13.88,-29.4,60.54
20.439841270446777,-54.9,15.98,-30.13,64.63
20.44393825531006,-57.64,15.99,-30.01,66.92
20.45599603652954,-59.84,12.32,-27.68,67.07
20.460838317871094,-57.01,12.71,-23.57,62.98
20.474730968475342,-49.47,17.92,-21.07,56.67
20.48938012123108,-43.05,24.04,-19.95,53.19
20.490161180496216,-41.17,27.27,-18.85,52.85
20.49074912071228,-42.44,26.91,-15.9,52.7
20.505969047546387,-42.28,24.22,-9.86,49.71
20.510971069335938,-38.15,20.71,-3.73,43.56
20.51841711997986,-32.08,16.38,-0.5,36.02
20.52832818031311,-27.21,12.12,0.87,29.79
20.53843927383423,-25.28,8.74,0.51,26.75
20.559335231781006,-25.78,5.34,-1.63,26.37
20.561182022094727,-27.54,1.45,-3.93,27.85
20.600932121276855,-29.75,-3.72,-5.55,30.49
20.602318286895752,-31.31,-9.27,-6.38,33.27
20.602956295013428,-31.48,-14.29,-6.79,35.23
20.603615283966064,-30.77,-19.13,-7.07,36.91
20.6110520362854,-30.07,-23.56,-7.07,38.84
20.618630170822144,-29.98,-27.32,-6.39,41.06
20.638766288757324,-30.51,-30.64,-5.21,43.55
20.63991618156433,-31.08,-33.63,-4.09,45.97
20.65549111366272,-31.25,-36.33,-2.82,48.0
20.658480167388916,-30.58,-37.36,-2.41,48.33
20.692942142486572,-29.79,-37.55,-3.38,48.05
20.694252967834473,-29.3,-37.57,-4.97,47.9
20.694869995117188,-28.89,-37.78,-6.32,47.97
20.69797110557556,-28.49,-38.76,-6.84,48.58
20.719857215881348,-27.71,-39.36,-7.0,48.64
20.72150707244873,-26.68,-40.01,-6.91,48.58
20.72783327102661,-25.96,-39.12,-6.79,47.43
20.737934112548828,-26.81,-38.03,-7.21,47.08
20.74831509590149,-27.79,-38.24,-9.21,48.16
20.770129203796387,-27.58,-39.71,-12.03,49.82
20.78474998474121,-26.29,-41.15,-12.69,50.45
20.78550100326538,-22.73,-41.77,-13.22,49.35
20.787413120269775,-15.28,-42.55,-13.66,47.22
20.797940254211426,-3.84,-45.34,-12.68,47.23
20.80869722366333,8.44,-47.83,-6.29,48.97
20.817910194396973,18.49,-48.64,5.09,52.28
20.8365421295166,27.03,-50.71,14.59,59.28
20.838574171066284,37.75,-49.74,17.17,64.76
20.8540461063385,49.03,-44.38,12.66,67.33
20.87166714668274,55.87,-41.75,5.4,69.95
20.899351119995117,59.55,-41.48,-3.32,72.64
20.913400173187256,62.5,-40.66,-11.82,75.49
20.927077293395996,62.74,-40.74,-20.61,77.59
20.939962148666382,57.55,-40.41,-25.21,74.7
20.943754196166992,47.36,-40.55,-25.48,67.35
20.94448709487915,35.45,-42.17,-22.69,59.58
20.96128797531128,21.6,-44.31,-17.14,52.18
20.973770141601562,7.37,-45.72,-8.35,47.05
20.974749088287354,-3.28,-46.32,-3.0,46.53
20.989603996276855,-10.07,-46.27,-3.92,47.51
21.004167079925537,-14.54,-45.44,-7.67,48.32
21.005072116851807,-17.59,-43.65,-10.48,48.21
21.006498098373413,-19.3,-41.15,-10.64,46.67
21.008278131484985,-20.35,-38.36,-8.46,44.24
21.022459030151367,-21.58,-36.61,-6.68,43.01
21.023516178131104,-22.13,-35.95,-5.9,42.62
21.03979206085205,-21.89,-36.47,-5.33,42.86
21.054116249084473,-22.0,-38.6,-4.47,44.65
21.055236101150513,-22.33,-40.79,-2.36,46.56
21.070783138275146,-22.81,-42.51,-1.07,48.25
21.098319053649902,-22.91,-44.18,-1.47,49.78
21.099493980407715,-22.4,-45.69,-3.48,51.0
21.100104093551636,-22.04,-44.59,-4.85,49.97
21.111242294311523,-23.06,-41.78,-4.77,47.95
21.123605251312256,-24.92,-38.62,-4.41,46.17
21.127767086029053,-27.1,-34.86,-3.68,44.3
21.140226125717163,-28.23,-30.86,-2.75,41.91
21.144350051879883,-28.42,-27.37,-1.63,39.49
21.146928310394287,-27.8,-23.77,-0.99,36.59
21.173434257507324,-26.51,-20.74,-0.92,33.67
21.187931060791016,-25.93,-16.77,0.25,30.88
21.189019203186035,-26.68,-14.01,0.67,30.14
21.190360069274902,-25.4,-10.93,-1.46,27.69
21.19674825668335,-22.37,-6.51,-4.92,23.81
21.207211017608643,-23.47,-3.84,-6.02,24.53
21.217302322387695,-29.96,0.16,-6.58,30.67
21.237064123153687,-39.31,6.11,-9.01,40.78
21.239015102386475,-48.68,9.93,-10.14,50.7
21.25456714630127,-56.21,12.64,-8.73,58.27
21.25724506378174,-61.33,16.04,-7.05,63.78
21.298022270202637,-62.86,19.69,-6.54,66.19
21.312217235565186,-62.29,21.24,-8.19,66.31
21.325374126434326,-61.14,20.15,-8.57,64.94
21.34140110015869,-61.47,16.82,-11.2,64.7
21.34244418144226,-61.4,14.51,-12.96,64.4
21.35627317428589,-56.92,19.24,-13.19,61.51
21.35731816291809,-50.38,25.8,-14.39,58.4
21.360841274261475,-44.91,30.08,-15.86,56.33
21.372021198272705,-42.23,32.1,-15.19,55.17
21.389734268188477,-40.92,30.38,-14.45,52.97
21.418484210968018,-37.8,26.98,-12.92,48.2
21.43271827697754,-32.87,23.13,-11.99,41.94
21.44691514968872,-28.63,18.29,-10.5,35.55
21.460260152816772,-26.45,13.72,-8.31,30.93
21.47330331802368,-26.21,8.95,-6.39,28.42
21.478475093841553,-26.91,4.01,-5.09,27.67
21.491064071655273,-27.99,-1.05,-5.41,28.52
21.494153022766113,-29.44,-6.55,-5.89,30.72
21.49484610557556,-30.5,-11.71,-6.28,33.26
21.51317024230957,-30.71,-15.53,-7.11,35.14
21.52698016166687,-30.86,-19.44,-7.59,37.25
21.52776002883911,-30.9,-23.37,-7.85,39.52
21.529376983642578,-31.25,-27.61,-8.03,42.46
21.53083610534668,-31.53,-31.45,-7.12,45.09
21.532289028167725,-31.03,-33.83,-6.08,46.3
21.5337553024292,-30.39,-35.84,-6.19,47.39
21.53513526916504,-29.28,-37.21,-6.52,47.79
21.536689281463623,-28.1,-37.83,-7.01,47.64
21.55443000793457,-27.63,-38.03,-7.36,47.58
21.55714702606201,-27.47,-37.52,-7.65,47.12
21.598215103149414,-27.47,-37.88,-8.39,47.53
21.612497091293335,-27.37,-38.51,-8.67,48.03
21.625816106796265,-27.28,-38.79,-8.72,48.21
21.64063811302185,-27.54,-39.14,-8.71,48.64
21.642109155654907,-28.09,-39.2,-8.05,48.89
21.656699180603027,-28.38,-38.51,-7.7,48.45
21.66162610054016,-28.27,-38.38,-9.22,48.55
21.673699140548706,-27.67,-39.31,-11.64,49.46
21.67819619178772,-24.44,-40.66,-12.74,49.12
21.69217610359192,-17.48,-40.93,-11.3,45.91
21.707311153411865,-8.52,-41.06,-5.95,42.35
21.708867073059082,1.51,-42.95,0.45,42.97
21.724170207977295,11.52,-45.81,6.56,47.68
21.725486278533936,19.03,-49.12,17.4,55.47
21.74013900756836,30.01,-47.83,24.41,61.51
21.7410831451416,43.01,-41.1,24.04,64.16
21.741820096969604,51.08,-40.29,17.14,67.27
21.757233142852783,56.27,-41.82,8.57,70.63
21.758872985839844,61.49,-41.67,-0.35,74.28
21.773838996887207,63.78,-44.4,-7.33,78.05
21.79035210609436,61.33,-47.26,-8.5,77.89
21.791959285736084,54.48,-50.84,-6.79,74.82
21.80693531036377,43.6,-53.35,-5.11,69.08
21.81153106689453,28.44,-53.49,-3.93,60.7
21.824347019195557,11.76,-53.18,-4.64,54.66
21.825735092163086,-2.77,-51.64,-7.18,52.21
21.84000515937805,-13.41,-50.19,-9.77,52.86
21.841049194335938,-19.58,-48.73,-10.67,53.58
21.857181072235107,-22.1,-46.32,-10.15,52.31
21.87276029586792,-22.03,-42.42,-8.85,48.61
21.902619123458862,-21.51,-39.4,-9.02,45.78
21.916466236114502,-21.61,-37.85,-9.93,44.7
21.93100929260254,-21.99,-36.81,-10.49,44.14
21.944910049438477,-22.76,-36.13,-10.11,43.88
21.95760726928711,-23.51,-36.56,-8.82,44.35
21.961678981781006,-23.79,-38.77,-7.42,46.08
21.974324226379395,-23.79,-41.9,-4.55,48.39
21.977763175964355,-23.12,-44.59,-1.44,50.24
21.978679180145264,-22.27,-46.1,0.16,51.19
21.99499011039734,-22.49,-46.18,-0.14,51.36
22.009077072143555,-24.24,-44.71,-1.38,50.87
22.023651123046875,-26.83,-42.36,-2.25,50.19
22.025104999542236,-29.16,-39.28,-2.72,48.99
22.03998613357544,-30.66,-36.59,-3.4,47.85
22.041088104248047,-31.27,-34.0,-3.78,46.34
22.044942140579224,-31.47,-31.32,-3.31,44.52
22.057350158691406,-31.87,-28.95,-1.08,43.06
22.061761140823364,-31.21,-27.09,-0.91,41.33
22.07429027557373,-29.69,-24.55,-0.3,38.52
22.089835166931152,-28.8,-19.19,0.03,34.6
22.119264125823975,-27.92,-14.06,-3.41,31.44
22.132907152175903,-26.73,-10.51,-8.2,29.86
22.147216320037842,-28.03,-7.68,-15.56,32.96
22.16096019744873,-35.18,-5.06,-20.73,41.14
22.174477100372314,-44.27,-1.73,-23.46,50.13
22.175568103790283,-51.57,0.1,-27.29,58.34
22.19016408920288,-54.8,2.97,-32.13,63.59
22.191272258758545,-55.8,6.45,-36.31,66.88
22.192012310028076,-56.2,10.61,-37.7,68.5
22.207542181015015,-55.6,14.39,-37.8,68.75
22.222962141036987,-56.29,15.39,-37.77,69.51
22.224342107772827,-59.13,15.57,-36.93,71.43
22.22531223297119,-60.91,18.85,-36.43,73.43
22.23976707458496,-58.72,23.28,-36.07,72.73
22.24083113670349,-53.73,28.38,-33.89,69.57
22.245217323303223,-48.3,30.52,-30.68,64.85
22.258507251739502,-42.61,29.75,-26.25,58.22
22.25943112373352,-38.25,27.21,-20.33,51.15
22.27361822128296,-35.71,23.49,-14.88,45.25
22.28864312171936,-33.32,18.84,-10.84,39.78
22.316585063934326,-29.72,14.13,-7.57,33.76
22.330726146697998,-25.93,10.23,-5.06,28.33
22.343789100646973,-23.9,6.82,-3.99,25.17
22.344919204711914,-24.74,3.1,-4.53,25.34
22.362426280975342,-28.35,-1.53,-5.27,28.87
22.36336898803711,-33.29,-7.85,-6.39,34.79
22.37812328338623,-36.07,-12.62,-7.91,39.02
22.37907123565674,-35.09,-15.97,-8.99,39.58
22.394127130508423,-32.78,-19.7,-8.98,39.28
22.39568519592285,-32.26,-23.58,-7.87,40.72
22.437774181365967,-33.61,-27.26,-7.39,43.9
22.452816009521484,-35.73,-30.97,-7.86,47.93
22.46691918373108,-37.27,-34.25,-7.75,51.2
22.481091022491455,-37.71,-37.39,-6.94,53.55
22.49436616897583,-37.05,-39.81,-6.31,54.74
22.507466316223145,-36.08,-41.71,-6.19,55.49
22.511741161346436,-35.15,-43.15,-6.87,56.07
22.524068117141724,-34.46,-44.37,-7.91,56.73
22.52815008163452,-33.91,-45.34,-9.22,57.36
22.529632091522217,-33.43,-46.11,-9.91,57.8
22.557125091552734,-32.73,-46.33,-10.03,57.6
22.557919025421143,-32.42,-46.96,-9.64,57.87
22.561805248260498,-31.65,-47.27,-8.87,57.57
22.574700117111206,-30.88,-48.42,-9.09,58.14
22.575781106948853,-30.71,-50.5,-8.97,59.78
22.59039831161499,-30.29,-50.65,-7.49,59.48
22.591475009918213,-27.6,-47.92,-5.54,55.57
22.592201232910156,-22.42,-46.94,-3.16,52.11
22.60720419883728,-12.66,-46.18,0.7,47.88
22.622426986694336,0.23,-43.71,5.31,44.03
22.65054225921631,12.28,-40.12,9.36,42.98
22.664659023284912,19.32,-39.93,12.5,46.08
22.679362297058105,24.92,-39.84,16.83,49.91
22.693171977996826,34.48,-32.86,19.87,51.6
22.70805811882019,40.61,-35.69,15.51,56.24
22.709046125411987,47.16,-41.49,9.77,63.56
22.711632251739502,54.71,-44.45,3.95,70.6
22.730406284332275,59.77,-47.54,-0.19,76.37
22.744707107543945,61.52,-48.79,-2.77,78.56
22.759637117385864,59.33,-50.2,-6.2,77.96
22.776174068450928,53.37,-51.03,-9.79,74.48
22.79129910469055,41.88,-50.47,-10.89,66.48
22.79240918159485,26.15,-48.94,-8.18,56.08
22.810306072235107,10.44,-48.52,-3.67,49.76
22.825093269348145,0.2,-48.11,0.06,48.11
22.8264422416687,-5.11,-47.55,0.83,47.83
22.840742111206055,-7.92,-46.32,0.04,46.99
22.84237003326416,-10.36,-44.6,-0.7,45.79
22.860321044921875,-13.37,-43.95,-1.32,45.95
22.890735149383545,-15.82,-43.71,-2.71,46.56
22.908867120742798,-17.4,-43.81,-4.84,47.38
22.909983158111572,-18.45,-44.03,-6.93,48.23
22.911418199539185,-19.46,-43.57,-7.71,48.33
22.912650108337402,-20.78,-43.25,-7.57,48.57
22.91431427001953,-22.25,-43.24,-6.84,49.1
22.915784120559692,-22.8,-44.11,-5.38,49.94
22.917253017425537,-22.35,-45.03,-3.47,50.39
22.9189510345459,-22.04,-46.28,-2.58,51.32
22.920653104782104,-22.25,-47.94,-3.33,52.95
22.923532009124756,-22.98,-49.1,-4.71,54.41
22.94246196746826,-24.15,-48.82,-5.75,54.76
22.94349431991577,-25.98,-47.4,-5.87,54.37
22.944863319396973,-27.91,-44.63,-5.37,52.91
22.946084022521973,-29.99,-42.66,-4.91,52.37
22.947247982025146,-31.3,-39.51,-4.09,50.57
22.94856309890747,-32.8,-35.91,-3.13,48.73
22.950016975402832,-33.52,-32.25,-2.45,46.57
22.951309204101562,-31.87,-26.76,-2.45,41.68
22.952460289001465,-29.65,-22.11,-3.74,37.17
22.95547103881836,-28.86,-18.72,-6.64,35.03
22.9763240814209,-30.35,-14.75,-8.42,34.77
22.978090286254883,-35.97,-12.33,-8.9,39.05
22.983204126358032,-43.86,-10.48,-9.44,46.07
22.99630117416382,-50.26,-4.98,-9.67,51.42
23.003036975860596,-54.81,-1.31,-13.11,56.37
23.014605045318604,-57.69,2.4,-16.74,60.11
23.02445912361145,-59.84,4.64,-23.2,64.34
23.03879404067993,-61.99,5.76,-28.96,68.66
23.057066202163696,-63.15,8.0,-30.85,70.73
23.07551908493042,-63.67,7.56,-33.89,72.52
23.09437608718872,-63.1,9.05,-35.29,72.86
23.114726066589355,-60.39,15.47,-33.87,70.94
23.132439136505127,-56.41,22.72,-31.83,68.63
23.150010108947754,-53.15,27.98,-29.62,66.97
23.165186166763306,-50.62,31.08,-26.89,65.2
23.16628122329712,-48.75,30.91,-24.06,62.53
23.179580211639404,-46.85,28.19,-19.1,57.91
23.180780172348022,-44.07,24.65,-13.61,52.29
23.196471214294434,-40.84,20.64,-8.77,46.59
23.22419309616089,-37.18,15.41,-4.15,40.46
23.240593194961548,-32.64,10.41,0.3,34.26
23.242063999176025,-29.03,6.67,2.39,29.88
23.243160247802734,-28.07,3.09,0.11,28.23
23.26066303253174,-29.72,-0.92,-3.97,29.99
23.277077198028564,-32.41,-6.15,-7.76,33.88
23.291195154190063,-33.75,-11.92,-10.01,37.16
23.296205043792725,-32.89,-17.37,-9.51,38.39
23.311551094055176,-31.58,-22.8,-7.2,39.61
23.328028202056885,-31.3,-27.46,-5.59,42.01
23.34207510948181,-32.03,-31.25,-5.06,45.03
23.358639240264893,-32.9,-34.69,-5.36,48.1
23.35966205596924,-33.38,-37.56,-5.55,50.55
23.377132177352905,-33.36,-40.04,-5.43,52.39
23.39056921005249,-32.79,-41.82,-5.86,53.46
23.39604616165161,-32.09,-42.79,-6.37,53.86
23.408745288848877,-31.6,-43.73,-6.43,54.33
23.40963912010193,-30.66,-44.53,-6.3,54.43
23.427370071411133,-29.84,-44.96,-6.46,54.34
23.440409183502197,-29.98,-45.17,-6.79,54.63
23.461015224456787,-30.02,-44.71,-7.01,54.3
23.475572109222412,-30.38,-44.62,-7.68,54.52
23.476500034332275,-30.58,-44.51,-8.51,54.66
23.492324113845825,-30.82,-44.0,-9.2,54.5
23.49341917037964,-31.1,-43.92,-10.34,54.8
23.510732173919678,-30.09,-44.02,-11.43,54.53
23.52454113960266,-27.01,-43.78,-11.43,52.69
23.529491186141968,-20.92,-43.02,-10.27,48.92
23.54439401626587,-10.1,-42.64,-6.36,44.27
23.561758995056152,3.19,-43.3,3.66,43.57
23.56397819519043,13.38,-50.19,16.1,54.38
23.59302520751953,24.79,-57.45,21.87,66.28
23.607126235961914,40.96,-53.67,21.2,70.76
23.608232975006104,50.72,-49.3,20.3,73.58
23.612730979919434,53.11,-50.85,22.03,76.75
23.625782012939453,57.57,-50.41,20.36,79.18
23.62681818008423,59.67,-51.94,15.97,80.7
23.641805171966553,58.24,-53.85,10.94,80.07
23.643089294433594,53.72,-55.02,5.51,77.09
23.65919303894043,45.41,-55.7,-0.17,71.86
23.675425052642822,33.58,-55.08,-5.01,64.7
23.691537141799927,19.7,-53.11,-8.28,57.24
23.69361710548401,5.88,-50.85,-10.2,52.19
23.71022319793701,-5.43,-49.06,-11.33,50.64
23.728114128112793,-12.77,-48.06,-11.5,51.04
23.74164319038391,-16.66,-47.13,-10.19,51.01
23.746568202972412,-18.24,-44.35,-7.62,48.55
23.76167917251587,-18.49,-41.68,-5.89,45.97
23.762999057769775,-18.77,-40.68,-6.09,45.21
23.779168128967285,-19.21,-39.76,-7.0,44.7
23.793303966522217,-19.72,-39.01,-8.17,44.46
23.808175086975098,-20.53,-39.1,-8.85,45.04
23.808948040008545,-21.82,-40.88,-9.19,47.24
23.809576988220215,-23.64,-44.25,-8.32,50.85
23.82422399520874,-24.61,-46.91,-5.62,53.27
23.82964324951172,-24.56,-46.82,-2.24,52.91
23.84455108642578,-25.41,-45.94,0.55,52.5
23.858148097991943,-26.83,-44.95,1.65,52.37
23.862521171569824,-27.86,-43.02,0.95,51.26
23.87607216835022,-28.79,-39.41,-0.09,48.8
23.89231300354004,-29.75,-34.73,0.04,45.73
23.91205930709839,-30.49,-30.85,1.28,43.39
23.927632093429565,-30.37,-28.54,2.6,41.75
23.9434871673584,-28.98,-26.95,2.81,39.67
23.961663246154785,-25.94,-25.37,0.8,36.29
23.97529697418213,-23.68,-23.26,-0.44,33.19
23.97634506225586,-23.04,-19.81,0.45,30.38
23.995073318481445,-22.97,-15.12,-0.77,27.51
24.01122808456421,-24.99,-10.78,-6.71,28.03
24.027111053466797,-30.4,-6.32,-12.1,33.32
24.041645050048828,-38.01,-0.66,-15.14,40.91
24.078137159347534,-45.28,4.33,-16.93,48.53
24.092177152633667,-51.6,6.96,-18.58,55.28
24.09352207183838,-56.58,9.81,-17.66,60.07
24.110392093658447,-59.1,11.35,-15.01,62.02
24.123845100402832,-59.74,11.6,-13.98,62.44
24.12957525253296,-61.35,12.0,-12.6,63.76
24.14232611656189,-64.88,12.45,-9.92,66.8
24.14331817626953,-66.55,14.06,-9.29,68.65
24.1611111164093,-63.73,18.43,-12.97,67.59
24.163605213165283,-59.09,24.71,-14.98,65.77
24.20600914955139,-55.12,29.71,-13.56,64.06
24.207097053527832,-51.61,30.71,-12.18,61.27
24.20767116546631,-48.0,28.78,-10.3,56.9
24.212512016296387,-43.07,27.03,-8.23,51.51
24.213359117507935,-37.73,24.58,-8.55,45.83
24.229600191116333,-33.49,20.92,-8.3,40.34
24.230507135391235,-30.26,17.1,-6.82,35.42
24.245830059051514,-28.06,12.62,-5.95,31.33
24.246657133102417,-27.15,7.85,-5.79,28.84
24.26189422607422,-27.05,3.15,-5.6,27.8
24.275618076324463,-27.37,-1.84,-5.64,28.0
24.27943706512451,-28.1,-7.45,-5.8,29.64
24.280142307281494,-28.88,-13.42,-6.17,32.43
24.295982122421265,-29.09,-18.99,-6.53,35.34
24.29683828353882,-28.47,-22.91,-6.42,37.1
24.31197214126587,-28.0,-26.22,-6.25,38.86
24.3128662109375,-28.05,-29.1,-6.23,40.89
24.329102993011475,-28.49,-31.58,-6.18,42.97
24.34212303161621,-28.89,-33.91,-6.26,44.98
24.357864141464233,-28.88,-35.92,-6.29,46.51
24.387461185455322,-28.74,-37.75,-6.36,47.86
24.40142822265625,-28.36,-39.38,-6.45,48.95
24.415645122528076,-27.34,-40.2,-6.65,49.06
24.42933416366577,-26.35,-40.32,-7.25,48.7
24.430423259735107,-25.71,-40.7,-7.97,48.79
24.446824073791504,-24.97,-40.56,-9.25,48.51
24.460323095321655,-24.58,-40.43,-10.27,48.41
24.475587129592896,-24.52,-40.6,-10.36,48.54
24.47661828994751,-24.46,-40.53,-10.2,48.42
24.49115800857544,-24.54,-40.41,-10.01,48.32
24.519740104675293,-24.61,-40.93,-10.48,48.89
24.520902156829834,-24.34,-41.59,-11.91,49.63
24.52150011062622,-23.62,-41.31,-12.85,49.29
24.52973699569702,-20.52,-39.36,-12.81,46.19
24.542062282562256,-12.28,-35.23,-12.46,39.33
24.546550273895264,0.35,-32.25,-10.68,33.97
24.559417247772217,12.6,-35.94,-7.05,38.73
24.562788009643555,21.45,-44.86,-0.01,49.72
24.563515186309814,31.3,-50.5,6.12,59.72
24.579987049102783,48.34,-42.67,11.66,65.52
24.59376311302185,56.94,-42.51,13.7,72.36
24.608742237091064,59.97,-45.1,14.9,76.5
24.610289096832275,62.88,-45.54,14.88,79.05
24.613017082214355,64.45,-49.74,11.79,82.26
24.63118815422058,64.26,-54.75,5.91,84.62
24.632086277008057,58.61,-55.4,-1.55,80.66
24.645438194274902,46.21,-53.39,-8.23,71.08
24.658506155014038,31.02,-50.57,-14.4,61.04
24.663170099258423,16.14,-47.19,-18.74,53.27
24.66478419303894,3.95,-43.47,-20.91,48.39
24.692059993743896,-3.37,-41.52,-22.03,47.12
24.6928231716156,-7.37,-41.66,-20.63,47.06
24.6934711933136,-10.6,-42.15,-16.6,46.52
24.708701133728027,-12.98,-41.65,-11.15,45.02
24.713008165359497,-13.96,-40.42,-6.27,43.22
24.725967168807983,-14.63,-40.06,-3.25,42.77
24.726938247680664,-15.32,-40.07,-2.3,42.96
24.741798162460327,-16.13,-40.01,-3.23,43.25
24.74345302581787,-17.16,-40.76,-5.54,44.57
24.759173154830933,-18.54,-42.21,-7.91,46.77
24.77598214149475,-19.62,-44.11,-9.23,49.15
24.77730131149292,-19.75,-45.67,-9.08,50.57
24.791035175323486,-19.8,-46.83,-7.22,51.35
24.79213309288025,-20.51,-47.37,-4.85,51.84
24.79644513130188,-21.83,-47.38,-2.73,52.23
24.808897972106934,-23.27,-46.46,-1.93,51.99
24.813173294067383,-24.95,-44.98,-2.68,51.5
24.825550079345703,-26.73,-42.21,-3.85,50.1
24.83035111427307,-27.58,-38.67,-5.42,47.8
24.85867714881897,-27.85,-34.5,-6.38,44.79
24.87428617477417,-28.49,-31.22,-5.89,42.67
24.875373125076294,-28.12,-28.05,-4.66,39.99
24.8772451877594,-27.19,-23.28,-2.19,35.86
24.891163110733032,-27.0,-16.99,1.42,31.93
24.896404266357422,-26.13,-12.86,2.04,29.19
24.90896511077881,-23.85,-9.01,-2.19,25.58
24.913613319396973,-25.5,-5.39,-6.79,26.93
24.926236152648926,-31.92,-2.6,-12.6,34.41
24.927208185195923,-40.77,1.21,-16.21,43.89
24.94227910041809,-49.12,5.66,-16.35,52.07
24.957720279693604,-54.07,9.31,-16.67,57.34
24.95876407623291,-55.83,11.52,-17.22,59.55
24.962980270385742,-56.29,11.58,-20.31,60.95
24.963644981384277,-58.73,11.69,-23.48,64.32
24.98028326034546,-61.21,12.51,-25.39,67.43
24.993117094039917,-62.98,11.33,-28.59,70.08
24.994023323059082,-62.85,10.34,-29.44,70.16
25.00839614868164,-58.68,13.24,-27.81,66.27
25.009550094604492,-53.41,18.31,-25.7,62.03
25.02476215362549,-49.88,22.34,-23.17,59.36
25.053807258605957,-47.68,24.93,-19.43,57.2
25.06774616241455,-46.19,24.98,-15.73,54.81
25.081789016723633,-44.21,21.45,-11.59,50.48
25.095203161239624,-39.67,16.98,-6.83,43.68
25.10871410369873,-33.52,12.17,-3.77,35.85
25.113726139068604,-28.28,7.64,-3.43,29.49
25.128468990325928,-25.63,3.88,-4.83,26.36
25.14207696914673,-25.32,0.79,-7.04,26.29
25.146825313568115,-26.28,-3.1,-9.8,28.21
25.160433292388916,-27.96,-8.67,-11.37,31.4
25.191888093948364,-28.73,-14.14,-10.86,33.81
25.19300413131714,-27.78,-18.57,-9.54,34.75
25.193612098693848,-26.29,-22.53,-8.53,35.65
25.20926308631897,-25.8,-26.15,-8.1,37.61
25.210705280303955,-26.54,-29.54,-7.78,40.46
25.225449085235596,-27.61,-32.73,-7.23,43.42
25.22697114944458,-28.15,-35.84,-6.27,46.0
25.245151042938232,-28.09,-38.7,-5.03,48.08
25.260964155197144,-27.51,-40.51,-3.94,49.12
25.2759690284729,-26.64,-41.08,-3.62,49.09
25.294384002685547,-25.8,-40.86,-3.93,48.48
25.310079097747803,-25.3,-40.65,-4.8,48.12
25.311260223388672,-25.03,-40.57,-5.93,48.03
25.325318098068237,-24.96,-40.29,-7.33,47.95
25.32728624343872,-25.08,-40.1,-8.18,47.99
25.343130111694336,-25.12,-39.85,-8.37,47.84
25.344233989715576,-25.27,-39.95,-8.07,47.95
25.361895084381104,-25.21,-39.66,-7.52,47.59
25.37547206878662,-24.84,-39.51,-7.29,47.23
25.39276123046875,-23.78,-39.69,-8.01,46.95
25.410568237304688,-21.99,-40.28,-9.5,46.86
25.41168212890625,-18.85,-38.95,-10.72,44.57
25.43008518218994,-13.93,-36.78,-12.3,41.2
25.431079149246216,-6.71,-32.53,-10.5,34.83
25.446284294128418,-0.24,-31.65,-7.49,32.52
25.4471492767334,4.71,-41.38,-1.36,41.66
25.463000297546387,17.34,-48.81,7.01,52.27
25.463720321655273,35.75,-49.43,12.25,62.22
25.481085300445557,50.46,-46.16,18.73,70.9
25.482787132263184,56.33,-45.84,28.58,78.04
25.508724212646484,60.36,-47.53,30.96,82.83
25.50950002670288,64.92,-50.35,28.8,87.05
25.514225006103516,66.11,-54.35,24.08,88.9
25.514876127243042,61.72,-57.94,14.05,85.81
25.53058910369873,52.05,-59.11,3.72,78.84
25.54297113418579,38.13,-57.84,-4.16,69.4
25.54384708404541,22.31,-55.33,-10.66,60.6
25.55849599838257,7.6,-52.8,-14.96,55.4
25.559669017791748,-3.17,-49.92,-16.53,52.68
25.563018321990967,-9.11,-46.84,-16.77,50.57
25.57670307159424,-11.68,-44.24,-15.1,48.18
25.57985019683838,-12.18,-41.55,-11.02,44.67
25.580788135528564,-12.36,-39.97,-7.06,42.42
25.596683979034424,-12.86,-39.69,-4.52,41.96
25.59760808944702,-13.95,-39.35,-3.98,41.93
25.612959146499634,-15.06,-38.64,-4.69,41.73
25.625794172286987,-15.68,-38.07,-5.87,41.58
25.63007616996765,-16.24,-38.24,-7.04,42.13
25.630911111831665,-16.99,-38.96,-7.35,43.13
25.659414291381836,-17.78,-40.54,-7.0,44.81
25.67450213432312,-18.15,-42.41,-6.17,46.54
25.675522089004517,-18.31,-44.13,-5.06,48.04
25.6773042678833,-19.18,-45.85,-3.84,49.84
25.691730976104736,-20.12,-46.58,-2.8,50.81
25.69281005859375,-21.09,-46.21,-2.35,50.84
25.697007179260254,-22.91,-45.36,-2.7,50.88
25.709391117095947,-24.66,-42.91,-3.32,49.6
25.71382999420166,-25.7,-39.62,-4.12,47.4
25.726479053497314,-26.75,-35.65,-5.28,44.88
25.742259979248047,-27.42,-31.65,-5.57,42.24
25.770840167999268,-26.98,-27.54,-5.44,38.93
25.772176265716553,-26.08,-22.17,-4.14,34.47
25.772829055786133,-25.58,-17.12,-2.58,30.88
25.77990412712097,-24.25,-13.82,-4.72,28.3
25.78074312210083,-24.52,-12.03,-7.37,28.28
25.797617197036743,-28.13,-10.45,-8.79,31.26
25.798545122146606,-33.37,-8.27,-12.38,36.54
25.811964988708496,-39.43,-7.52,-18.25,44.09
25.81302809715271,-45.42,-9.07,-24.5,52.39
25.841981172561646,-49.06,-8.79,-28.22,57.27
25.8698410987854,-51.57,-7.81,-31.42,60.89
25.883490085601807,-54.51,-8.97,-34.93,65.35
25.897215127944946,-56.9,-9.08,-36.87,68.4
25.909797191619873,-57.8,-10.18,-40.96,71.56
25.91079330444336,-56.12,-7.62,-45.23,72.47
25.9254469871521,-51.63,1.06,-49.39,71.45
25.92654323577881,-46.5,10.41,-52.69,71.04
25.927441120147705,-43.42,18.61,-53.69,71.51
25.94168519973755,-41.0,25.09,-50.5,69.71
25.943466186523438,-38.19,29.06,-46.59,66.88
25.958810091018677,-35.76,28.3,-43.19,62.8
25.959959030151367,-33.64,26.88,-37.65,57.19
25.960692167282104,-31.77,23.71,-31.88,50.87
25.975374221801758,-29.32,18.35,-28.11,44.57
25.976487159729004,-26.62,12.31,-25.38,38.78
25.9773530960083,-25.71,4.78,-22.82,34.7
25.99165916442871,-26.77,-2.53,-20.22,33.64
25.99273920059204,-29.23,-10.39,-18.01,35.87
25.997085094451904,-30.36,-16.12,-14.41,37.27
25.9986891746521,-28.61,-19.26,-10.2,35.96
26.037600994110107,-26.45,-21.31,-6.63,34.6
26.0387921333313,-26.01,-22.62,-4.94,34.82
26.039368152618408,-27.57,-24.75,-5.55,37.46
26.0469012260437,-30.02,-28.59,-7.78,42.17
26.047762155532837,-31.77,-32.41,-9.74,46.41
26.063889026641846,-32.6,-35.66,-10.64,49.47
26.076322078704834,-32.58,-36.86,-9.67,50.13
26.080477237701416,-32.52,-38.14,-8.72,50.87
26.092573165893555,-32.42,-40.83,-8.59,52.83
26.10895609855652,-32.46,-43.23,-8.64,54.74
26.12416410446167,-32.73,-45.03,-8.59,56.32
26.1252281665802,-32.96,-46.09,-8.45,57.28
26.13067626953125,-32.88,-46.9,-8.37,57.88
26.14307713508606,-32.83,-48.26,-8.68,59.0
26.147634029388428,-32.54,-49.16,-8.96,59.63
26.160142183303833,-31.91,-48.68,-8.49,58.82
26.161097049713135,-30.98,-48.95,-8.33,58.52
26.175652027130127,-29.51,-50.04,-9.67,58.89
26.17674207687378,-28.3,-50.94,-10.76,59.25
26.192246198654175,-25.91,-49.59,-9.94,56.82
26.22182011604309,-19.16,-44.38,-7.29,48.88
26.23597812652588,-5.52,-43.33,-5.47,44.02
26.250012159347534,9.93,-46.44,-0.56,47.49
26.26442527770996,16.68,-53.79,11.16,57.41
26.277220249176025,22.47,-59.82,22.81,67.85
26.27829909324646,38.9,-50.49,29.4,70.19
26.292640209197998,47.96,-47.62,33.04,75.22
26.294209003448486,48.86,-50.39,35.63,78.71
26.309868097305298,49.46,-51.6,30.94,77.88
26.32566499710083,48.27,-54.21,25.9,77.06
26.34151816368103,44.99,-57.09,22.53,76.09
26.342583179473877,40.67,-58.83,19.25,74.06
26.34684705734253,34.93,-59.21,13.49,70.05
26.34773015975952,26.49,-57.85,5.97,63.9
26.36390709877014,15.35,-55.64,-1.66,57.74
26.376618146896362,3.31,-53.08,-7.27,53.67
26.38023018836975,-6.62,-49.51,-9.75,50.89
26.38093113899231,-12.37,-45.54,-9.98,48.23
26.397651195526123,-14.85,-42.85,-9.0,46.23
