time,ax,ay,az,atotal
0.007234096527099609,-0.06,-0.32,-0.41,0.52
0.015861988067626953,0.16,-0.6,-0.32,0.69
0.0259859561920166,0.23,-0.87,-0.05,0.9
0.03601503372192383,0.2,-1.0,0.2,1.03
0.046898841857910156,0.14,-1.03,0.42,1.12
0.05674409866333008,0.03,-0.97,0.49,1.08
0.06720209121704102,-0.11,-0.8,0.43,0.91
0.08763790130615234,-0.29,-0.62,0.31,0.75
0.0891728401184082,-0.35,-0.5,0.18,0.63
0.0964210033416748,-0.27,-0.48,0.05,0.55
0.10696601867675781,-0.11,-0.52,-0.07,0.53
0.1167001724243164,0.01,-0.62,-0.1,0.62
0.12766790390014648,0.11,-0.75,-0.08,0.76
0.1375141143798828,0.22,-0.86,-0.11,0.89
0.14744997024536133,0.25,-0.93,-0.15,0.97
0.15743684768676758,0.22,-0.93,-0.06,0.95
0.16771411895751953,0.07,-0.93,0.09,0.93
0.19369983673095703,-0.11,-0.8,0.13,0.81
0.19517993927001953,-0.22,-0.73,0.07,0.76
0.197113037109375,-0.23,-0.74,-0.06,0.77
0.20722007751464844,-0.19,-0.76,-0.14,0.79
0.2195148468017578,-0.17,-0.83,-0.07,0.85
0.22739315032958984,-0.17,-0.92,0.02,0.93
0.23797988891601562,-0.11,-0.96,0.15,0.97
0.24825811386108398,-0.02,-1.07,0.22,1.09
0.25817012786865234,-0.11,-1.04,0.14,1.05
0.2688610553741455,-0.2,-1.01,0.11,1.03
0.29537391662597656,-0.21,-0.94,0.05,0.96
0.2968001365661621,-0.19,-0.92,0.03,0.93
0.29778385162353516,-0.19,-0.95,0.02,0.96
0.3079261779785156,-0.18,-1.01,0.01,1.02
0.3179788589477539,-0.11,-1.06,0.03,1.06
0.32813215255737305,-0.07,-1.14,0.08,1.14
0.33907198905944824,-0.04,-1.23,0.14,1.23
0.34895896911621094,-0.08,-1.25,0.08,1.25
0.35864686965942383,-0.17,-1.22,0.04,1.23
0.36893606185913086,-0.17,-1.21,0.01,1.22
0.3951869010925293,-0.12,-1.13,-0.12,1.14
0.39667510986328125,-0.06,-1.01,-0.25,1.04
0.39849400520324707,-0.08,-0.92,-0.36,0.99
0.408689022064209,-0.18,-0.9,-0.43,1.01
0.41873788833618164,-0.17,-0.77,-0.48,0.92
0.4287559986114502,-0.25,-0.47,-0.33,0.62
0.43970203399658203,-0.3,-0.23,-0.14,0.4
0.44957494735717773,-0.23,-0.13,-0.12,0.29
0.45972204208374023,-0.06,-0.06,0.0,0.08
0.47022485733032227,0.4,0.04,0.28,0.48
0.49507617950439453,0.82,-0.2,0.43,0.94
0.4965071678161621,0.9,-0.31,0.45,1.05
0.4992220401763916,-0.24,0.25,0.3,0.45
0.5093460083007812,-1.25,1.77,-0.22,2.17
0.5194170475006104,-0.55,2.56,-1.35,2.94
0.5294928550720215,0.13,5.0,-2.07,5.41
0.5402710437774658,0.24,6.4,-0.02,6.4
0.5502128601074219,-0.15,4.0,2.65,4.8
0.5605759620666504,0.42,1.33,4.91,5.1
0.5704519748687744,1.76,1.3,3.47,4.1
0.593623161315918,2.02,2.18,2.14,3.66
0.5954818725585938,0.93,2.66,2.35,3.66
0.5997560024261475,-0.3,3.49,3.35,4.84
0.6101179122924805,-1.2,4.35,3.48,5.69
0.6201980113983154,-1.47,4.55,2.89,5.58
0.6300339698791504,-1.05,4.12,2.39,4.87
0.6402678489685059,-0.5,2.95,1.99,3.59
0.6510820388793945,0.01,1.93,1.63,2.52
0.6605949401855469,-0.1,1.41,1.55,2.09
0.6712198257446289,-0.37,1.11,1.99,2.3
0.6935858726501465,-0.55,0.69,2.39,2.54
0.6953690052032471,-0.87,0.39,2.89,3.04
0.7008390426635742,-1.14,0.47,2.18,2.5
0.7107901573181152,-1.0,-0.25,1.56,1.86
0.7208328247070312,-0.79,-1.27,1.63,2.21
0.7308530807495117,-0.64,-1.86,1.05,2.22
0.7415471076965332,-0.6,-2.41,0.89,2.63
0.7518119812011719,-0.45,-3.09,0.83,3.23
0.7616128921508789,-0.36,-3.54,0.85,3.65
0.7720110416412354,-0.61,-4.0,1.47,4.3
0.7953329086303711,-0.76,-4.48,2.25,5.07
0.7971959114074707,-0.79,-4.98,2.26,5.52
0.8013339042663574,-0.76,-5.49,1.43,5.72
0.8206849098205566,-0.54,-5.89,0.45,5.93
0.8219449520111084,-0.14,-6.29,-0.34,6.3
0.8342709541320801,0.05,-6.53,-1.14,6.62
0.842069149017334,-0.04,-6.55,-1.57,6.73
0.8521370887756348,-0.17,-6.65,-1.52,6.82
0.8623018264770508,-0.39,-6.86,-1.26,6.98
0.8722329139709473,-0.47,-6.89,-0.56,6.92
0.8941700458526611,-0.48,-7.36,0.01,7.37
0.8959779739379883,-0.55,-7.61,0.19,7.63
0.9019818305969238,-0.6,-7.65,0.21,7.67
0.9120509624481201,-0.55,-7.57,0.35,7.59
0.9222021102905273,-0.4,-7.65,0.37,7.66
0.9332370758056641,-0.17,-7.42,-0.12,7.42
0.9426698684692383,-0.03,-6.91,-1.0,6.98
0.9530720710754395,-0.19,-6.55,-1.62,6.75
0.9632768630981445,-0.46,-6.58,-1.87,6.85
0.9731059074401855,-0.6,-6.56,-1.94,6.86
0.9953451156616211,-0.63,-6.42,-1.86,6.71
0.9970450401306152,-0.6,-6.29,-1.16,6.42
1.002760887145996,-0.65,-6.03,-0.17,6.06
1.020482063293457,-0.83,-5.76,0.62,5.85
1.0230951309204102,-0.76,-5.37,1.07,5.52
1.0333490371704102,-0.48,-5.03,1.02,5.15
1.0435340404510498,-0.08,-4.77,0.51,4.79
1.0538740158081055,0.22,-4.33,-0.02,4.33
1.0641729831695557,0.49,-3.68,0.04,3.71
1.073768138885498,0.34,-3.08,0.08,3.09
1.0973548889160156,-0.28,-2.13,-0.04,2.14
1.0990829467773438,-0.86,-0.72,0.25,1.14
1.1034820079803467,-1.38,0.43,0.83,1.66
1.1195769309997559,-1.61,1.21,1.27,2.38
1.1236538887023926,-1.44,1.79,1.45,2.71
1.1341710090637207,-0.72,2.19,1.8,2.92
1.144364833831787,0.15,3.07,1.13,3.27
1.1545610427856445,0.44,3.98,0.14,4.0
1.1646239757537842,0.65,4.88,-0.58,4.95
1.1746230125427246,0.91,5.51,-0.93,5.66
1.1982011795043945,1.05,5.98,-0.57,6.09
1.1999731063842773,1.15,6.29,0.38,6.4
1.2044038772583008,1.37,6.56,1.45,6.85
1.2146830558776855,1.35,6.86,1.93,7.25
1.2251591682434082,1.16,7.54,2.07,7.9
1.2348308563232422,0.83,8.52,2.04,8.8
1.2449820041656494,0.65,9.17,1.99,9.4
1.2548260688781738,0.61,9.17,1.91,9.38
1.2653369903564453,0.64,8.94,1.81,9.14
1.2750911712646484,0.62,8.46,2.04,8.72
1.298509120941162,0.47,8.02,2.61,8.44
1.300389051437378,0.01,7.69,3.61,8.49
1.3048670291900635,-0.38,7.13,4.55,8.46
1.3149371147155762,-0.74,6.45,4.81,8.07
1.3256750106811523,-1.01,5.96,4.37,7.45
1.335541009902954,-0.98,5.51,3.67,6.69
1.345984935760498,-0.74,4.75,3.19,5.76
1.3558568954467773,-0.44,3.88,2.68,4.73
1.3660290241241455,-0.02,3.17,1.91,3.7
1.3762078285217285,0.45,2.54,1.08,2.79
1.3988499641418457,0.85,1.92,0.49,2.15
1.400637149810791,0.88,1.22,0.24,1.52
1.4054641723632812,0.5,0.88,0.34,1.06
1.4155199527740479,0.05,0.81,0.66,1.04
1.4257190227508545,-0.44,0.65,1.09,1.34
1.4366140365600586,-0.7,0.26,1.38,1.56
1.4465210437774658,-0.72,-0.33,1.32,1.53
1.4565060138702393,-0.45,-1.0,1.01,1.49
1.4669179916381836,-0.08,-1.77,0.65,1.88
1.4772801399230957,0.19,-2.66,0.48,2.7
1.501884937286377,0.31,-3.27,0.53,3.32
1.5036699771881104,0.24,-3.64,0.66,3.7
1.506253957748413,-0.18,-3.85,0.47,3.88
1.5161781311035156,-0.83,-3.66,0.07,3.75
1.5270929336547852,-0.95,-3.58,0.07,3.7
1.536984920501709,-0.78,-4.24,0.59,4.35
1.5471291542053223,-0.52,-5.38,1.31,5.56
1.557070016860962,-0.14,-6.16,1.82,6.42
1.5679421424865723,0.15,-6.54,2.03,6.84
1.5778851509094238,0.31,-6.89,2.06,7.19
1.6027719974517822,0.42,-7.05,1.86,7.3
1.6042308807373047,0.09,-7.02,1.25,7.13
1.606977939605713,-0.39,-6.47,0.46,6.49
1.6170430183410645,-0.49,-6.01,0.04,6.03
1.6271028518676758,-0.45,-6.2,0.06,6.21
1.6377511024475098,-0.38,-6.29,0.13,6.3
1.648144006729126,-0.39,-6.24,0.35,6.26
1.6577091217041016,-0.54,-6.29,0.75,6.35
1.6681740283966064,-0.61,-6.42,1.27,6.57
1.6788380146026611,-0.63,-6.41,1.58,6.63
1.7035579681396484,-0.8,-6.34,1.52,6.56
1.7050299644470215,-0.98,-5.97,1.17,6.16
1.7079110145568848,-1.08,-5.48,0.7,5.62
1.717905044555664,-1.01,-5.0,0.23,5.1
1.727841854095459,-0.91,-4.72,-0.13,4.8
1.73860502243042,-0.88,-4.77,-0.28,4.85
1.7487280368804932,-0.85,-4.75,-0.43,4.84
1.7588989734649658,-1.0,-4.73,-0.47,4.85
1.7687678337097168,-1.43,-4.78,-0.47,5.01
1.779041051864624,-1.87,-4.86,-0.43,5.22
1.8039729595184326,-2.12,-5.38,0.07,5.78
1.8054680824279785,-2.11,-6.36,0.91,6.76
1.808560848236084,-1.85,-7.36,1.39,7.71
1.8184828758239746,-1.31,-8.0,1.57,8.25
1.828476905822754,-0.73,-8.33,1.65,8.52
1.8393831253051758,-0.45,-8.47,1.25,8.57
1.8491590023040771,-0.42,-8.37,0.73,8.41
1.8593480587005615,-0.52,-8.03,0.63,8.07
1.8694109916687012,-0.7,-7.23,0.85,7.31
1.8797998428344727,-0.71,-6.05,0.99,6.17
1.9022369384765625,-0.33,-4.88,1.18,5.03
1.9037179946899414,0.19,-4.18,1.48,4.43
1.9090080261230469,0.34,-3.95,2.15,4.51
1.9191930294036865,0.05,-3.48,2.98,4.58
1.929184913635254,-0.29,-2.34,3.2,3.97
1.9400420188903809,-0.26,-0.71,2.75,2.85
1.9500980377197266,0.27,1.41,2.07,2.51
1.9601430892944336,0.59,3.09,1.0,3.3
1.9699211120605469,0.59,4.13,-0.32,4.18
1.9807090759277344,0.48,5.33,-1.44,5.54
2.004581928253174,0.22,6.52,-2.17,6.87
2.0060229301452637,0.1,7.21,-2.74,7.71
2.009700059890747,0.33,7.75,-2.67,8.2
2.0198779106140137,0.68,8.6,-1.91,8.83
2.029834032058716,0.44,9.1,-1.4,9.21
2.0413570404052734,0.22,9.56,-0.97,9.61
2.050722122192383,0.36,9.72,-0.63,9.74
2.0607471466064453,0.3,9.33,-0.41,9.34
2.0711021423339844,-0.03,9.24,0.22,9.24
2.081321954727173,-0.71,9.7,1.07,9.78
2.106395959854126,-1.42,10.33,1.91,10.6
2.1078040599823,-1.93,10.61,2.46,11.06
2.1108269691467285,-2.06,10.37,3.2,11.04
2.1204450130462646,-2.02,9.64,4.25,10.72
2.1312551498413086,-1.93,8.65,5.04,10.19
2.1406168937683105,-1.78,7.76,5.48,9.66
2.151165008544922,-1.62,6.93,5.52,9.0
2.161533832550049,-1.38,6.24,4.92,8.06
2.1711368560791016,-1.07,5.66,4.29,7.18
2.182371139526367,-0.64,5.1,3.82,6.4
2.207024097442627,-0.24,4.28,3.39,5.46
2.2084829807281494,-0.09,3.33,3.21,4.62
2.2111690044403076,-0.08,2.59,3.14,4.07
2.2212460041046143,-0.14,1.88,2.93,3.48
2.2313220500946045,-0.05,1.14,2.73,2.95
2.2413620948791504,0.06,0.18,2.66,2.66
2.252267837524414,0.18,-0.93,2.64,2.8
2.2622599601745605,0.41,-1.86,2.52,3.15
2.2717790603637695,0.57,-2.62,2.36,3.57
2.2824020385742188,0.45,-3.57,1.91,4.07
2.3053009510040283,0.05,-4.36,1.04,4.48
2.307157039642334,-0.21,-4.59,0.07,4.59
2.3117799758911133,-0.2,-4.93,-0.65,4.97
2.322312831878662,-0.12,-5.75,-1.19,5.87
2.3320629596710205,0.08,-6.4,-1.52,6.57
2.3421249389648438,0.27,-6.96,-1.57,7.13
2.3521180152893066,0.29,-7.57,-1.21,7.67
2.363085985183716,0.28,-7.93,-0.51,7.95
2.3731350898742676,0.2,-8.25,-0.04,8.25
2.3827381134033203,-0.04,-8.5,0.07,8.5
2.4073660373687744,-0.35,-8.47,-0.02,8.47
2.4091999530792236,-0.7,-8.31,-0.06,8.33
2.4125750064849854,-1.0,-8.21,-0.11,8.27
2.43093204498291,-1.05,-8.44,0.05,8.5
2.43275785446167,-1.11,-8.69,0.4,8.76
2.4439148902893066,-1.22,-8.76,0.79,8.87
2.4533491134643555,-1.22,-8.96,1.27,9.13
2.4634220600128174,-1.33,-9.13,1.64,9.37
2.4736571311950684,-1.46,-9.0,1.79,9.29
2.4835829734802246,-1.52,-8.72,1.73,9.01
2.5075058937072754,-1.5,-8.48,1.61,8.76
2.5093400478363037,-1.33,-8.16,1.29,8.36
2.5131750106811523,-1.11,-7.88,0.89,8.0
2.531010150909424,-0.95,-7.5,0.52,7.57
2.5334279537200928,-0.83,-6.88,0.25,6.93
2.543455123901367,-0.64,-6.35,-0.01,6.38
2.5541980266571045,-0.44,-6.13,-0.02,6.14
2.5640931129455566,-0.5,-5.88,0.36,5.91
2.574489116668701,-0.59,-5.22,0.74,5.3
2.583915948867798,-0.53,-4.44,0.85,4.55
2.6085360050201416,-0.61,-3.89,0.8,4.01
2.610395908355713,-0.48,-3.36,0.76,3.47
2.6139168739318848,-0.19,-3.15,0.47,3.19
2.631071090698242,-0.06,-3.1,-0.21,3.1
2.6341450214385986,0.06,-2.67,-0.86,2.8
2.6441550254821777,0.02,-1.83,-1.41,2.31
2.6552491188049316,-0.22,-0.72,-1.72,1.87
2.664823055267334,-0.34,0.7,-1.59,1.77
2.674957036972046,-0.22,2.55,-1.24,2.84
2.6849560737609863,0.13,4.09,-1.05,4.22
2.7072789669036865,0.4,4.49,-1.1,4.64
2.7091331481933594,0.56,4.51,-0.9,4.63
2.71464204788208,0.76,4.63,-0.78,4.75
2.730790138244629,0.91,4.92,-0.71,5.05
2.734921932220459,1.12,5.56,-0.46,5.69
2.745645046234131,1.24,6.21,-0.19,6.33
2.7555508613586426,1.12,6.82,0.09,6.91
2.7654638290405273,0.96,7.51,0.88,7.62
2.776221990585327,0.84,7.88,1.96,8.16
2.7855401039123535,0.61,7.94,2.74,8.42
2.8117408752441406,0.33,8.02,3.07,8.59
2.813560962677002,-0.1,8.17,2.93,8.68
2.8153481483459473,-0.59,8.46,2.88,8.95
2.8303120136260986,-0.99,8.48,3.33,9.16
2.835513114929199,-1.35,8.17,3.95,9.17
2.8455519676208496,-1.62,7.68,4.62,9.1
2.8564229011535645,-1.74,7.15,5.37,9.1
2.8662710189819336,-1.71,6.68,5.87,9.05
2.8766860961914062,-1.73,6.14,5.9,8.68
2.886387825012207,-1.82,5.77,5.68,8.29
2.911267042160034,-1.6,5.35,5.13,7.58
2.9130959510803223,-1.1,4.75,4.23,6.45
2.916018009185791,-0.48,3.99,3.2,5.13
2.9291558265686035,-0.05,3.17,2.33,3.93
2.9362668991088867,0.2,2.37,1.71,2.92
2.9470901489257812,0.41,1.55,1.51,2.2
2.9572229385375977,0.57,0.86,1.56,1.87
2.96669602394104,0.65,0.36,1.23,1.43
2.977447032928467,0.57,-0.01,0.89,1.05
2.986959934234619,0.35,-0.33,1.05,1.15
3.013007164001465,0.07,-0.85,1.2,1.47
3.0148470401763916,-0.19,-1.34,1.21,1.81
3.0166590213775635,-0.3,-1.78,1.15,2.14
3.028809070587158,-0.27,-2.38,1.09,2.63
3.0369749069213867,-0.1,-3.07,0.92,3.2
3.0473508834838867,-0.03,-3.67,0.58,3.71
3.058022975921631,-0.18,-3.99,0.23,4.0
3.067318916320801,-0.33,-4.19,-0.05,4.2
3.0778839588165283,-0.5,-4.29,-0.11,4.32
3.087894916534424,-0.61,-4.47,0.19,4.51
3.110846996307373,-0.71,-4.84,0.63,4.93
3.112751007080078,-0.75,-5.24,1.03,5.39
3.1175079345703125,-0.66,-5.69,1.28,5.86
3.1275339126586914,-0.6,-6.17,1.28,6.32
3.137843132019043,-0.59,-6.55,1.09,6.66
3.14857816696167,-0.64,-6.78,0.84,6.86
3.158276081085205,-0.7,-6.95,0.44,6.99
3.1679558753967285,-0.92,-7.08,-0.07,7.13
3.178737163543701,-1.12,-7.23,-0.41,7.32
3.1887309551239014,-1.14,-7.44,-0.7,7.55
3.213468074798584,-1.14,-7.59,-0.93,7.73
3.2152249813079834,-1.23,-7.75,-0.89,7.89
3.218113899230957,-1.25,-7.93,-0.54,8.04
3.228508949279785,-1.3,-8.2,0.08,8.3
3.238278865814209,-1.42,-8.51,0.76,8.66
3.2484049797058105,-1.41,-8.68,1.14,8.86
3.2592740058898926,-1.29,-8.69,1.17,8.86
3.2691588401794434,-1.09,-8.62,1.11,8.75
3.279487133026123,-0.82,-8.53,0.89,8.61
3.289590835571289,-0.62,-8.5,0.54,8.53
3.316226005554199,-0.5,-8.44,0.29,8.45
3.317723035812378,-0.42,-8.34,-0.06,8.35
3.3189029693603516,-0.29,-8.19,-0.55,8.21
3.3290090560913086,-0.23,-7.93,-0.74,7.96
3.3391120433807373,-0.31,-7.5,-0.42,7.51
3.349076986312866,-0.4,-7.09,-0.09,7.1
3.3602499961853027,-0.34,-6.85,0.2,6.86
3.369710922241211,-0.25,-6.6,0.62,6.63
3.3798890113830566,-0.06,-5.86,0.9,5.92
3.39028000831604,0.3,-4.9,0.93,4.99
3.4180140495300293,0.83,-4.11,1.03,4.31
3.419556140899658,1.19,-3.46,0.94,3.77
3.420663833618164,1.26,-2.33,0.7,2.73
3.4297239780426025,1.23,-0.81,0.37,1.51
3.4412431716918945,0.99,0.7,0.24,1.23
3.4497909545898438,0.82,1.98,0.51,2.2
3.4598300457000732,0.78,3.14,0.94,3.36
3.4707980155944824,0.61,4.3,1.17,4.49
3.4804160594940186,0.32,5.56,1.15,5.68
3.490830898284912,0.22,6.87,1.14,6.96
3.5166940689086914,0.05,7.68,1.07,7.75
3.5179848670959473,-0.08,7.98,1.26,8.07
3.520167827606201,0.0,8.45,1.87,8.65
3.530561923980713,0.02,8.65,2.23,8.93
3.5404720306396484,-0.01,8.76,2.19,9.02
3.550405979156494,0.0,8.99,2.14,9.24
3.5615179538726807,-0.33,9.13,2.3,9.42
3.5720601081848145,-0.89,9.31,2.71,9.73
3.5813660621643066,-1.4,9.55,3.68,10.32
3.591620922088623,-1.71,9.46,4.71,10.7
3.616297960281372,-1.85,8.99,4.97,10.43
3.617856025695801,-2.0,8.54,4.59,9.89
3.620823860168457,-2.21,8.26,3.83,9.36
3.631119966506958,-2.23,8.0,3.02,8.83
3.6412229537963867,-1.95,7.55,2.23,8.11
3.6512699127197266,-1.53,6.83,1.49,7.15
3.662194013595581,-1.09,5.89,1.17,6.1
3.6720938682556152,-0.72,4.88,1.4,5.12
3.681488037109375,-0.5,4.03,1.87,4.47
3.6923880577087402,-0.26,3.38,2.2,4.04
3.718595027923584,-0.18,2.79,2.14,3.52
3.7200570106506348,-0.49,2.39,1.86,3.06
3.721606969833374,-0.66,2.04,1.68,2.72
3.731786012649536,-0.67,1.41,1.62,2.24
3.7419509887695312,-0.7,0.51,1.88,2.06
3.752203941345215,-0.6,-0.39,2.54,2.63
3.762795925140381,-0.43,-1.3,3.06,3.35
3.772542953491211,-0.24,-2.1,3.22,3.85
3.7824320793151855,-0.09,-2.79,3.12,4.18
3.7928390502929688,-0.05,-3.39,2.76,4.37
3.818882942199707,-0.07,-4.02,1.98,4.48
3.820218086242676,-0.07,-4.61,1.03,4.72
3.8224501609802246,-0.18,-5.0,0.1,5.0
3.8324429988861084,-0.33,-5.19,-0.42,5.21
3.8425841331481934,-0.32,-5.64,-0.37,5.66
3.852632999420166,-0.28,-6.36,0.16,6.36
3.8627071380615234,-0.25,-6.9,0.94,6.96
3.8733930587768555,-0.25,-7.34,1.5,7.49
3.883229970932007,-0.21,-7.81,1.76,8.0
3.893537998199463,-0.1,-8.11,1.76,8.29
3.9177770614624023,-0.11,-8.24,1.39,8.35
3.9193339347839355,-0.25,-8.3,0.78,8.34
3.922924041748047,-0.4,-8.31,0.14,8.32
3.933212995529175,-0.57,-8.24,-0.34,8.26
3.943349838256836,-0.75,-8.27,-0.34,8.31
3.953317165374756,-0.82,-8.56,0.22,8.6
3.963386058807373,-0.77,-8.89,0.95,8.97
3.97412109375,-0.63,-9.14,1.5,9.28
3.984386920928955,-0.58,-9.31,1.74,9.48
3.99406099319458,-0.69,-9.22,1.57,9.37
4.017277956008911,-0.7,-8.8,1.2,8.9
4.0190269947052,-0.64,-8.43,0.84,8.49
4.022384166717529,-0.58,-8.13,0.53,8.16
4.0325608253479,-0.49,-7.66,0.24,7.67
4.042633056640625,-0.34,-7.11,-0.1,7.11
4.0525898933410645,-0.2,-6.63,-0.36,6.64
4.063357830047607,-0.1,-6.04,-0.25,6.04
4.073529005050659,0.06,-5.32,-0.11,5.32
4.083348035812378,0.11,-4.74,-0.29,4.75
4.093976020812988,-0.08,-4.16,-0.41,4.18
4.120093822479248,-0.45,-3.22,-0.19,3.25
4.122129917144775,-0.74,-2.23,0.34,2.37
4.123383045196533,-0.93,-1.6,0.81,2.02
4.141014099121094,-0.92,-0.97,1.07,1.71
4.143466949462891,-0.81,-0.07,1.06,1.33
4.1556549072265625,-0.66,0.86,0.73,1.3
4.16376805305481,-0.5,1.86,0.42,1.97
4.17383599281311,-0.26,3.07,0.19,3.08
4.184658050537109,0.11,4.17,-0.09,4.17
4.1942901611328125,0.66,4.99,-0.1,5.03
4.220396041870117,1.21,5.72,0.38,5.85
4.222130060195923,1.41,6.51,0.99,6.73
4.223829984664917,1.3,7.31,1.48,7.57
4.240906000137329,1.05,8.23,1.88,8.5
4.243907928466797,0.81,9.11,2.0,9.36
4.256389141082764,0.45,9.81,1.8,9.98
4.264535903930664,0.19,10.39,1.51,10.5
4.274791955947876,-0.24,10.87,1.37,10.95
4.28500509262085,-1.02,11.35,1.55,11.5
4.294852018356323,-1.89,11.71,1.84,12.0
4.317870140075684,-2.65,11.66,2.17,12.15
4.319169998168945,-2.99,11.0,2.71,11.71
4.324562072753906,-2.99,9.94,3.15,10.84
4.338801860809326,-2.81,8.8,3.37,9.83
4.344933986663818,-2.64,7.73,3.28,8.8
4.354874134063721,-2.46,6.64,2.98,7.68
4.365039825439453,-2.03,5.43,2.74,6.41
4.375715017318726,-1.42,4.13,2.49,5.02
4.385658025741577,-0.81,2.82,2.21,3.67
4.395646095275879,-0.33,1.71,1.77,2.48
4.419656991958618,-0.01,0.8,1.24,1.47
4.421424865722656,0.35,-0.11,1.09,1.15
4.42510986328125,0.67,-1.13,1.32,1.86
4.440598964691162,0.95,-1.94,1.61,2.69
4.445312023162842,1.03,-2.66,1.74,3.34
4.455380916595459,0.9,-3.31,1.92,3.93
4.466431140899658,0.76,-3.78,2.07,4.37
4.476078033447266,0.67,-4.42,1.88,4.84
4.486634969711304,0.65,-5.1,1.49,5.35
4.496260166168213,0.55,-5.64,1.12,5.77
4.521841049194336,0.23,-6.2,0.59,6.23
4.523580074310303,0.01,-6.48,-0.02,6.48
4.526134967803955,0.0,-6.62,-0.45,6.63
4.539872169494629,-0.18,-6.84,-0.45,6.85
4.546050071716309,-0.52,-6.98,0.12,7.0
4.556516170501709,-0.89,-7.2,0.99,7.32
4.566838979721069,-1.28,-7.48,1.74,7.78
4.576733112335205,-1.54,-7.83,2.49,8.35
4.587100028991699,-1.56,-8.27,3.14,8.98
4.596837997436523,-1.44,-8.69,3.47,9.46
4.623960971832275,-1.27,-9.05,3.38,9.74
4.625756025314331,-1.09,-9.43,2.87,9.91
4.626993179321289,-0.9,-9.66,2.11,9.92
4.6395440101623535,-0.7,-9.82,1.32,9.93
4.6494410037994385,-0.45,-9.88,0.6,9.9
4.660399913787842,-0.24,-9.82,0.0,9.82
4.670103073120117,-0.09,-9.76,-0.46,9.77
4.680190086364746,-0.02,-9.71,-0.73,9.73
4.690525054931641,-0.01,-9.52,-0.82,9.55
4.700450897216797,-0.07,-9.01,-0.74,9.04
4.72500205039978,0.02,-8.33,-0.61,8.35
4.726824998855591,0.18,-7.82,-0.53,7.84
4.729697942733765,0.26,-7.54,-0.45,7.55
4.74013090133667,0.29,-7.29,-0.27,7.3
4.750104904174805,0.16,-6.97,-0.1,6.97
4.760191917419434,-0.08,-6.36,0.19,6.36
4.771195888519287,-0.44,-5.05,0.54,5.09
4.780612945556641,-0.74,-3.44,0.49,3.55
4.791329860687256,-0.78,-2.27,-0.01,2.4
4.8013410568237305,-0.62,-1.48,-0.65,1.73
4.828411102294922,-0.64,-0.77,-0.81,1.28
4.830235958099365,-0.88,0.02,-0.21,0.9
4.831164836883545,-1.15,1.05,0.85,1.77
4.840814113616943,-0.84,2.8,2.03,3.55
4.8507959842681885,-0.14,4.9,2.41,5.46
4.860918998718262,0.49,7.1,1.98,7.38
4.871827125549316,0.76,9.39,1.26,9.5
4.881300926208496,0.77,11.6,0.68,11.64
4.891707897186279,0.58,13.23,0.03,13.24
4.902176856994629,0.29,14.7,-0.24,14.7
4.926162004470825,-0.19,16.29,0.31,16.29
4.927299976348877,-1.16,17.62,1.88,17.75
4.931282997131348,-2.74,18.03,4.28,18.73
4.942229986190796,-4.56,17.52,7.25,19.5
4.952502965927124,-5.9,16.35,9.95,20.02
4.962429046630859,-6.49,14.72,11.29,19.65
4.97235894203186,-5.99,12.78,11.15,17.98
4.982311010360718,-4.98,10.82,10.17,15.66
4.99255895614624,-4.01,8.55,8.7,12.84
5.0026140213012695,-2.85,6.24,6.96,9.77
5.024420976638794,-1.58,4.27,5.12,6.85
5.025522947311401,-0.46,2.57,3.45,4.32
5.031790018081665,0.4,1.15,2.23,2.54
5.0420520305633545,0.91,-0.09,1.32,1.6
5.052298069000244,1.12,-1.44,0.49,1.88
5.062319040298462,1.25,-2.78,-0.09,3.04
5.073155879974365,1.38,-4.04,-0.26,4.27
5.083155155181885,1.56,-4.98,-0.2,5.22
5.09280800819397,1.64,-5.73,-0.22,5.96
5.103564977645874,1.6,-6.21,-0.3,6.41
5.130496978759766,1.4,-6.34,-0.35,6.5
5.131969928741455,0.96,-6.65,-0.39,6.73
5.132926940917969,0.56,-7.23,-0.36,7.26
5.143172979354858,0.35,-7.76,-0.05,7.76
5.1529741287231445,0.16,-8.32,0.62,8.34
5.1630189418792725,-0.03,-8.96,1.46,9.07
5.173101902008057,-0.05,-9.58,2.12,9.81
5.184036016464233,0.02,-10.06,2.5,10.36
5.193387031555176,0.04,-10.44,2.75,10.79
5.204031944274902,-0.06,-10.73,3.01,11.14
5.230556011199951,-0.23,-10.98,3.22,11.44
5.2320380210876465,-0.56,-11.18,3.04,11.59
5.233499050140381,-1.12,-11.06,2.33,11.35
5.243677139282227,-1.43,-10.68,1.6,10.89
5.253790855407715,-1.44,-10.6,1.07,10.75
5.263739109039307,-1.25,-10.75,0.84,10.85
5.273756980895996,-0.95,-10.95,0.87,11.02
5.2845778465271,-0.59,-11.06,0.93,11.11
5.294080972671509,-0.26,-11.02,0.83,11.05
5.304908037185669,-0.07,-10.79,0.62,10.8
5.330946922302246,-0.05,-10.27,0.38,10.27
5.332201957702637,-0.22,-9.54,0.13,9.54
5.333901882171631,-0.49,-8.79,-0.16,8.8
5.355136871337891,-0.79,-8.06,-0.27,8.1
5.356409072875977,-0.92,-7.36,-0.17,7.41
5.367978096008301,-0.93,-6.78,-0.09,6.84
5.374536991119385,-0.81,-6.32,-0.37,6.38
5.384915828704834,-0.65,-5.78,-0.9,5.88
5.395027160644531,-0.72,-5.23,-1.16,5.4
5.405424118041992,-1.03,-4.57,-0.75,4.74
5.432687044143677,-1.2,-3.68,0.1,3.87
5.434528827667236,-1.17,-2.66,0.94,3.05
5.435436964035034,-0.98,-1.63,1.87,2.66
5.455532073974609,-0.66,-0.96,2.67,2.91
5.456778049468994,-0.04,-0.23,2.98,2.98
5.468213081359863,0.6,1.45,2.92,3.31
5.475239038467407,0.71,3.12,2.5,4.06
5.485532999038696,0.4,4.36,1.68,4.68
5.49568510055542,0.43,6.04,1.04,6.14
5.505978107452393,0.58,7.1,0.53,7.14
5.5323028564453125,0.47,7.28,0.65,7.32
5.534095048904419,0.45,7.94,1.31,8.05
5.535366058349609,0.64,8.7,2.01,8.95
5.555132865905762,0.7,9.25,2.27,9.55
5.5564141273498535,0.38,10.13,2.09,10.35
5.567312955856323,-0.42,11.19,1.95,11.36
5.576624870300293,-1.52,12.22,1.64,12.42
5.586827039718628,-2.34,13.15,1.29,13.41
5.596928119659424,-2.75,13.41,1.41,13.76
5.606513023376465,-2.92,12.86,2.38,13.4
5.631495952606201,-3.26,11.94,3.72,12.92
5.632879972457886,-3.87,11.21,5.06,12.89
5.63657283782959,-4.41,10.25,6.23,12.77
5.654172897338867,-4.59,9.09,6.63,12.15
5.65659499168396,-4.33,8.06,6.36,11.14
5.667320013046265,-3.52,7.01,5.4,9.52
5.677410125732422,-2.57,5.89,4.07,7.6
5.687051057815552,-1.75,4.67,2.99,5.81
5.697441101074219,-1.24,3.44,2.45,4.4
5.7071099281311035,-0.93,2.3,2.22,3.32
5.734775066375732,-0.73,1.23,2.12,2.55
5.7366249561309814,-0.62,0.17,2.11,2.2
5.737505912780762,-0.41,-0.88,2.04,2.25
5.75503396987915,-0.16,-1.88,1.84,2.63
5.757152080535889,-0.05,-2.85,1.61,3.27
5.76708984375,-0.04,-3.81,1.4,4.05
5.777994155883789,-0.16,-4.71,1.16,4.85
5.787721157073975,-0.37,-5.53,1.01,5.63
5.7981181144714355,-0.53,-6.33,0.98,6.42
5.807962894439697,-0.7,-7.04,0.99,7.14
5.836344003677368,-0.75,-7.53,1.0,7.63
5.838186025619507,-0.57,-7.87,0.93,7.94
5.83934211730957,-0.33,-8.19,0.81,8.23
5.854243040084839,-0.07,-8.47,0.69,8.49
5.857921123504639,0.24,-8.78,0.51,8.79
5.867962837219238,0.54,-9.15,0.3,9.17
5.878795146942139,0.74,-9.46,0.11,9.48
5.888906002044678,0.92,-9.73,-0.07,9.77
5.89881706237793,1.02,-9.99,-0.28,10.04
5.908529996871948,1.05,-10.15,-0.47,10.21
5.936668872833252,0.98,-10.11,-0.59,10.17
5.938516139984131,0.95,-9.89,-0.66,9.95
5.939578056335449,1.0,-9.66,-0.75,9.74
5.9540839195251465,1.01,-9.56,-0.71,9.63
5.958552837371826,0.99,-9.54,-0.61,9.61
5.968401908874512,0.99,-9.49,-0.56,9.55
5.979604959487915,0.99,-9.35,-0.53,9.41
5.989220142364502,0.85,-9.18,-0.57,9.23
5.999467849731445,0.46,-8.87,-0.58,8.9
6.009255886077881,0.06,-8.39,-0.15,8.39
6.036571025848389,-0.1,-7.83,0.41,7.84
6.038238048553467,-0.35,-7.35,0.67,7.38
6.039134979248047,-0.72,-6.94,0.66,7.0
6.053647041320801,-1.06,-6.3,0.79,6.43
6.059276103973389,-1.52,-5.53,1.39,5.9
6.069602012634277,-2.26,-4.84,2.53,5.91
6.0803141593933105,-2.76,-4.22,3.98,6.42
6.089846134185791,-3.0,-3.51,5.26,6.99
6.100244998931885,-3.07,-2.88,5.81,7.17
6.109822988510132,-3.03,-1.92,5.4,6.48
6.135727882385254,-2.96,0.04,4.24,5.17
6.137444019317627,-2.59,2.72,2.72,4.63
6.139580965042114,-2.04,5.58,1.44,6.11
6.153306007385254,-1.6,7.78,0.2,7.94
6.160177946090698,-1.07,9.52,-0.95,9.62
6.170578956604004,-0.55,10.91,-1.73,11.05
6.180578947067261,-0.12,11.6,-1.61,11.71
6.191190958023071,0.2,11.39,-0.53,11.4
6.201260089874268,0.52,11.2,0.64,11.23
6.210922956466675,0.8,11.23,1.45,11.35
6.233296871185303,0.8,11.14,2.03,11.35
6.234631061553955,0.59,11.06,2.1,11.27
6.241063117980957,0.19,11.39,1.74,11.52
6.250701904296875,-0.22,11.6,1.19,11.66
6.261345863342285,-0.47,11.53,0.48,11.54
6.271565914154053,-0.6,11.17,0.36,11.19
6.281628131866455,-0.78,10.58,1.1,10.66
6.2915849685668945,-1.09,9.7,2.1,9.98
6.30086612701416,-1.25,8.82,2.77,9.32
6.311830997467041,-1.17,7.98,3.18,8.66
6.3347368240356445,-1.01,6.98,3.73,7.97
6.33613395690918,-0.78,5.84,4.4,7.35
6.340959072113037,-0.46,4.68,5.14,6.96
6.351253032684326,-0.28,3.1,5.56,6.37
6.361330032348633,-0.24,1.6,5.38,5.61
6.3714540004730225,-0.2,0.48,4.94,4.96
6.381489992141724,-0.08,-0.47,4.38,4.4
6.392186164855957,0.04,-1.3,3.72,3.94
6.402302980422974,0.17,-2.06,2.94,3.59
6.412322044372559,0.28,-2.76,2.06,3.45
6.43834114074707,0.13,-3.52,1.3,3.75
6.439579963684082,-0.26,-4.26,0.8,4.34
6.441620826721191,-0.68,-4.86,0.52,4.93
6.451987028121948,-0.99,-5.58,0.38,5.67
6.4622039794921875,-1.18,-6.38,0.24,6.49
6.472234010696411,-1.25,-7.07,0.16,7.18
6.483196020126343,-1.2,-7.72,0.08,7.81
6.492404937744141,-1.07,-8.32,0.1,8.38
6.502974033355713,-0.85,-8.8,0.32,8.84
6.513545036315918,-0.59,-9.25,0.57,9.28
6.542602062225342,-0.28,-9.58,0.82,9.61
6.54372501373291,-0.06,-9.64,0.99,9.69
6.544461011886597,-0.13,-9.7,0.99,9.75
6.552840948104858,-0.42,-9.81,0.74,9.84
6.562737941741943,-0.68,-9.66,0.45,9.69
6.5728840827941895,-0.81,-9.48,0.3,9.51
6.5828938484191895,-0.86,-9.42,0.4,9.46
6.5936620235443115,-0.86,-9.37,0.64,9.43
6.6033549308776855,-0.8,-9.43,0.88,9.5
6.613813877105713,-0.61,-9.58,0.99,9.65
6.63804292678833,-0.36,-9.62,0.91,9.66
6.63915491104126,-0.15,-9.54,0.64,9.56
6.6430230140686035,0.08,-9.2,0.16,9.2
6.653411865234375,0.24,-8.7,-0.33,8.7
6.663599014282227,0.28,-8.33,-0.57,8.35
6.673498153686523,0.24,-8.0,-0.7,8.03
6.683523178100586,0.1,-7.58,-0.7,7.61
6.694705963134766,-0.11,-7.13,-0.51,7.14
6.704028129577637,-0.51,-6.63,-0.41,6.66
6.714538097381592,-0.76,-5.96,-0.16,6.01
6.742457866668701,-0.59,-5.2,0.23,5.23
6.743679046630859,-0.48,-4.63,0.45,4.67
6.744457006454468,-0.34,-4.14,0.39,4.17
6.754115104675293,-0.32,-3.31,0.14,3.32
6.764309883117676,-0.51,-2.06,0.24,2.13
6.7742791175842285,-0.48,-0.52,0.94,1.17
6.7851879596710205,-0.4,1.19,1.94,2.31
6.795001029968262,-0.56,2.53,2.44,3.55
6.804859161376953,-0.92,3.74,2.53,4.6
6.81520414352417,-1.33,5.33,3.04,6.27
6.8415069580078125,-1.23,7.06,3.61,8.02
6.842639923095703,-0.65,8.37,3.58,9.12
6.844428062438965,0.03,9.14,3.15,9.66
6.855324983596802,0.58,9.64,2.85,10.06
6.865900039672852,0.7,10.28,2.92,10.7
6.8756630420684814,0.28,11.17,3.11,11.59
6.885819911956787,-0.4,12.09,3.16,12.5
6.895864963531494,-1.22,12.84,3.12,13.26
6.90580415725708,-2.0,13.1,3.09,13.6
6.916048049926758,-2.49,12.78,3.01,13.36
6.9375128746032715,-2.88,12.11,2.94,12.79
6.938634872436523,-3.38,11.34,3.28,12.27
6.946138858795166,-3.76,10.52,3.72,11.77
6.9558000564575195,-3.87,9.42,3.98,10.93
6.96570897102356,-3.51,8.04,4.17,9.71
6.975747108459473,-2.75,6.55,4.08,8.19
6.985690116882324,-1.74,5.22,3.56,6.55
6.996646881103516,-0.75,4.08,2.91,5.06
7.005882978439331,0.08,3.0,2.28,3.76
7.016913890838623,0.63,1.88,1.71,2.61
7.044667959213257,0.9,0.9,1.39,1.88
7.045961856842041,1.04,0.07,1.07,1.49
7.046774864196777,0.97,-0.64,0.76,1.38
7.066303014755249,0.83,-1.06,0.97,1.65
7.067564010620117,0.62,-1.39,1.69,2.27
7.080151081085205,0.29,-2.06,2.46,3.22
7.087244987487793,0.09,-2.73,3.07,4.1
7.096721172332764,0.05,-3.35,3.33,4.72
7.106822967529297,0.0,-4.09,3.35,5.28
7.11720609664917,-0.06,-4.81,3.19,5.77
7.144747972488403,-0.05,-5.51,2.79,6.17
7.146178960800171,-0.08,-6.14,2.36,6.57
7.147106170654297,-0.24,-6.66,2.04,6.96
7.165689945220947,-0.35,-7.08,1.78,7.3
7.166998863220215,-0.29,-7.43,1.52,7.58
7.180075168609619,-0.14,-7.75,1.19,7.84
7.187871932983398,0.07,-8.1,0.82,8.14
7.197818040847778,0.3,-8.47,0.53,8.49
7.207434177398682,0.42,-8.82,0.28,8.83
7.217502117156982,0.42,-9.05,0.07,9.06
7.2464599609375,0.35,-9.16,-0.13,9.16
7.247957944869995,0.24,-9.21,-0.21,9.21
7.248899936676025,0.14,-9.33,-0.15,9.33
7.26570987701416,0.0,-9.46,0.06,9.46
7.267693996429443,-0.14,-9.59,0.27,9.59
7.278980016708374,-0.16,-9.69,0.44,9.7
7.2881340980529785,-0.1,-9.74,0.65,9.76
7.298614978790283,0.0,-9.78,0.72,9.8
7.308411121368408,0.07,-9.72,0.52,9.73
7.318483829498291,0.15,-9.58,0.12,9.58
7.345319986343384,0.19,-9.34,-0.33,9.34
7.34669303894043,0.14,-9.14,-0.64,9.16
7.347944974899292,0.04,-8.89,-0.79,8.92
7.365325927734375,-0.14,-8.49,-0.75,8.52
7.368428945541382,-0.45,-7.97,-0.35,7.99
7.379128932952881,-0.81,-7.44,0.19,7.48
7.388493061065674,-1.29,-6.89,0.72,7.04
7.399258136749268,-1.33,-6.11,1.35,6.39
7.409471035003662,-1.24,-5.35,1.58,5.71
7.418884038925171,-1.24,-4.58,1.65,5.02
7.446961879730225,-1.23,-3.72,2.05,4.42
7.448551177978516,-1.29,-2.42,2.65,3.81
7.449459075927734,-1.56,-0.52,3.05,3.46
7.465288162231445,-2.1,1.44,3.09,4.0
7.469269037246704,-2.38,3.49,3.33,5.37
7.479068994522095,-2.36,5.1,3.64,6.69
7.489243984222412,-2.18,6.1,3.89,7.55
7.499979019165039,-1.71,7.21,4.11,8.47
7.510154962539673,-1.31,8.5,4.17,9.55
7.519804954528809,-1.01,9.52,3.65,10.24
7.54801607131958,-0.48,10.55,2.67,10.89
7.549406051635742,0.22,11.44,1.55,11.54
7.550252914428711,0.63,11.9,0.73,11.93
7.564291000366211,0.85,12.39,0.35,12.42
7.570873975753784,0.83,12.86,0.2,12.88
7.5800700187683105,0.54,12.88,0.3,12.89
7.590257167816162,0.26,12.52,0.91,12.55
7.60073184967041,-0.04,11.77,1.75,11.89
7.610926151275635,-0.38,10.72,2.38,10.98
7.6216139793396,-0.65,9.75,2.75,10.15
7.642870903015137,-0.77,8.89,3.0,9.41
7.6442530155181885,-0.82,7.92,2.87,8.46
7.650373935699463,-0.82,7.07,2.57,7.56
7.664055824279785,-0.7,6.3,2.41,6.78
7.670444011688232,-0.5,5.25,2.22,5.72
7.680505037307739,-0.29,4.08,1.93,4.52
7.690537929534912,-0.01,3.02,1.68,3.45
7.7014970779418945,0.14,2.07,1.39,2.49
7.711323976516724,-0.02,1.2,1.15,1.66
7.721299171447754,-0.21,0.44,1.03,1.13
7.747740030288696,-0.35,-0.4,1.07,1.19
7.749157905578613,-0.52,-1.29,1.25,1.87
7.750794887542725,-0.69,-2.17,1.42,2.68
7.764019966125488,-0.73,-3.03,1.52,3.46
7.771303176879883,-0.68,-3.92,1.43,4.22
7.7812910079956055,-0.61,-4.81,1.2,4.99
7.791208982467651,-0.52,-5.57,0.86,5.65
7.802168846130371,-0.44,-6.21,0.61,6.25
7.812114953994751,-0.25,-6.71,0.5,6.73
7.821761131286621,-0.05,-7.16,0.45,7.17
7.849776029586792,-0.01,-7.6,0.59,7.62
7.851606845855713,0.05,-7.85,1.07,7.92
7.85247802734375,0.1,-8.05,1.56,8.2
7.863626003265381,0.14,-8.33,1.84,8.53
7.871842861175537,0.2,-8.67,2.06,8.91
7.881938934326172,0.24,-9.05,2.28,9.33
7.892035961151123,0.23,-9.37,2.39,9.67
7.902565002441406,0.06,-9.61,2.33,9.88
7.912960052490234,-0.11,-9.69,2.14,9.92
7.922852039337158,-0.1,-9.61,1.85,9.78
7.9491400718688965,-0.04,-9.46,1.5,9.57
7.950628042221069,0.05,-9.29,1.21,9.36
7.952147960662842,0.16,-9.18,0.98,9.23
7.962502956390381,0.22,-9.13,0.91,9.17
7.972580909729004,0.32,-9.04,0.98,9.09
7.982694149017334,0.38,-8.8,0.92,8.85
7.993764877319336,0.33,-8.38,0.78,8.42
8.002984046936035,0.18,-7.76,0.66,7.79
8.014292001724243,0.1,-7.17,0.59,7.19
8.020833015441895,0.01,-6.67,0.49,6.68
8.049038887023926,-0.17,-6.05,0.26,6.05
8.050398826599121,-0.53,-5.28,0.16,5.3
8.051298141479492,-0.69,-4.61,0.31,4.67
8.06054401397705,-0.64,-4.17,0.55,4.25
8.070932865142822,-0.3,-3.74,0.77,3.83
8.08067512512207,0.07,-3.21,0.61,3.26
8.090811967849731,0.44,-2.53,-0.02,2.56
8.10176396369934,0.77,-1.68,-0.59,1.93
8.11161494255066,0.8,-0.58,-0.87,1.31
8.122006893157959,0.81,0.6,-0.82,1.29
8.147446155548096,1.06,1.72,-0.46,2.07
8.148964881896973,1.23,2.68,0.16,2.95
8.1509690284729,1.19,3.71,0.8,3.97
8.161371946334839,0.82,5.05,1.39,5.3
8.171391010284424,0.2,6.77,2.0,7.06
8.181387901306152,-0.41,7.87,2.27,8.2
8.19226884841919,-0.77,8.61,2.32,8.95
8.201734066009521,-0.64,9.3,2.32,9.6
8.212270975112915,-0.47,9.98,2.07,10.2
8.22262191772461,-0.68,10.84,1.66,10.98
8.248761177062988,-1.24,11.67,1.49,11.82
8.250076055526733,-2.18,12.33,1.77,12.64
8.252035140991211,-3.22,12.56,2.39,13.18
8.26216197013855,-3.95,12.25,3.23,13.27
8.272068977355957,-4.11,11.32,3.99,12.68
8.282196998596191,-3.93,10.05,4.37,11.64
8.292222023010254,-3.64,9.02,4.64,10.77
8.302961826324463,-3.43,7.68,4.7,9.63
8.312968969345093,-3.09,6.3,4.3,8.22
8.323364973068237,-2.53,5.27,3.7,6.91
8.34992504119873,-1.98,4.23,3.25,5.68
8.350977897644043,-1.53,3.15,2.89,4.54
8.352339029312134,-1.12,2.28,2.59,3.62
8.362608909606934,-0.76,1.48,2.26,2.8
8.372728824615479,-0.38,0.73,1.89,2.06
8.382848978042603,-0.26,-0.13,1.59,1.61
8.393708944320679,-0.32,-1.08,1.61,1.96
8.403212070465088,-0.49,-2.0,1.79,2.72
8.413683891296387,-0.58,-2.82,2.01,3.51
8.423918008804321,-0.53,-3.59,2.11,4.19
8.452191829681396,-0.48,-4.32,2.1,4.82
8.453385829925537,-0.41,-4.88,1.91,5.25
8.454151153564453,-0.28,-5.34,1.46,5.54
8.463419914245605,-0.08,-5.78,0.96,5.85
8.47582483291626,0.17,-6.22,0.56,6.24
8.483593940734863,0.36,-6.7,0.27,6.71
8.494811058044434,0.39,-7.24,0.05,7.25
8.50431203842163,0.38,-7.67,-0.11,7.68
8.51452112197876,0.41,-7.92,-0.2,7.93
8.524420022964478,0.44,-8.07,-0.2,8.08
8.55347204208374,0.4,-8.15,-0.09,8.16
8.554874897003174,0.31,-8.23,0.04,8.23
8.555974006652832,0.11,-8.34,0.26,8.34
8.564126968383789,-0.12,-8.31,0.67,8.33
8.574493885040283,-0.26,-8.3,1.07,8.37
8.584287166595459,-0.37,-8.41,1.26,8.51
8.595160961151123,-0.47,-8.48,1.28,8.58
8.604981899261475,-0.48,-8.58,1.19,8.67
8.6148099899292,-0.41,-8.63,1.01,8.69
8.625319004058838,-0.25,-8.64,0.81,8.68
8.655910968780518,-0.06,-8.66,0.68,8.68
8.657014846801758,0.12,-8.6,0.66,8.62
8.657798051834106,0.17,-8.38,0.68,8.4
8.67841386795044,-0.04,-8.05,0.56,8.06
8.679617881774902,-0.22,-7.73,0.34,7.74
8.691833972930908,-0.28,-7.37,0.07,7.37
8.697904109954834,-0.37,-7.0,-0.07,7.01
8.707818984985352,-0.37,-6.64,0.03,6.65
8.718278884887695,-0.31,-6.44,0.07,6.44
8.728762149810791,-0.29,-6.33,-0.11,6.33
8.75771713256836,-0.15,-6.0,-0.12,6.0
8.759101867675781,0.06,-5.58,0.23,5.58
8.75999903678894,0.26,-5.08,0.69,5.13
8.778696060180664,0.61,-4.35,1.24,4.56
8.779962062835693,0.85,-3.35,1.75,3.87
8.790434837341309,0.78,-2.1,1.88,2.92
8.798326969146729,0.45,-0.13,1.6,1.66
8.808311939239502,0.13,2.4,1.38,2.77
8.819437026977539,0.0,4.51,1.4,4.72
8.828947067260742,0.05,5.79,1.53,5.98
8.855643033981323,-0.17,6.27,2.06,6.6
8.857032060623169,-0.26,6.48,2.82,7.07
8.858525037765503,-0.22,6.79,3.37,7.58
8.878788948059082,-0.14,7.5,3.54,8.29
8.880030155181885,0.08,8.45,3.34,9.08
8.890738010406494,0.17,9.33,2.86,9.75
8.899585962295532,0.06,10.15,2.47,10.44
8.910362958908081,-0.11,10.76,2.31,11.0
8.919854164123535,-0.35,11.11,2.44,11.38
8.929671049118042,-0.84,11.25,3.16,11.71
8.956220149993896,-1.59,11.15,4.18,12.01
8.957617044448853,-2.44,11.01,5.0,12.33
8.95933485031128,-3.11,10.54,5.36,12.22
8.975589036941528,-3.38,9.95,5.3,11.76
8.979657173156738,-3.12,9.3,4.92,10.97
8.990308046340942,-2.47,8.47,4.26,9.79
8.999739170074463,-1.65,7.4,3.42,8.31
9.00982403755188,-0.96,6.33,2.63,6.92
9.022089004516602,-0.56,5.34,2.04,5.74
9.030500888824463,-0.22,4.34,1.32,4.54
9.057500839233398,0.17,3.37,0.53,3.41
9.05886197090149,0.5,2.32,-0.02,2.37
9.059782028198242,0.75,1.31,-0.12,1.51
9.077669143676758,0.83,0.35,0.02,0.9
9.080242156982422,0.69,-0.62,0.26,0.96
9.090261936187744,0.51,-1.58,0.4,1.7
9.10046100616455,0.44,-2.52,0.49,2.6
9.110426902770996,0.29,-3.45,0.68,3.52
9.121572017669678,0.05,-4.5,0.79,4.56
9.130937099456787,-0.26,-5.32,0.78,5.38
9.157789945602417,-0.75,-5.68,0.5,5.75
9.15916895866394,-0.87,-5.91,0.0,5.97
9.160534858703613,-0.53,-6.57,-0.43,6.6
9.17750096321106,-0.29,-7.46,-0.5,7.48
9.180941104888916,-0.11,-8.15,-0.27,8.15
9.191014051437378,0.06,-8.66,0.03,8.66
9.201114177703857,0.1,-8.99,0.48,9.0
9.212141036987305,0.2,-9.1,0.92,9.14
9.221933841705322,0.22,-9.12,1.12,9.19
9.231789112091064,-0.03,-9.22,1.15,9.29
9.260815143585205,-0.25,-9.11,1.01,9.16
9.262022018432617,-0.25,-8.92,0.77,8.95
9.262861013412476,-0.24,-9.02,0.46,9.03
9.275704860687256,-0.28,-9.06,0.23,9.06
9.281757831573486,-0.2,-8.96,0.16,8.96
9.291589975357056,-0.06,-8.96,0.16,8.96
9.301867008209229,-0.07,-8.93,0.32,8.93
9.312528133392334,-0.16,-8.88,0.57,8.89
9.322661876678467,-0.2,-8.67,0.67,8.69
9.332430839538574,-0.24,-8.37,0.37,8.38
9.3628511428833,-0.29,-8.02,0.01,8.02
9.36424207687378,-0.24,-7.58,-0.1,7.58
9.36510705947876,-0.35,-7.18,-0.06,7.18
9.373682022094727,-0.53,-6.87,0.03,6.89
9.382527828216553,-0.67,-6.53,0.15,6.56
9.393560886383057,-1.01,-5.97,0.85,6.11
9.402529954910278,-1.31,-5.63,2.16,6.17
9.413261890411377,-1.35,-5.31,3.13,6.3
9.423310995101929,-1.07,-4.74,3.3,5.87
9.433387041091919,-0.63,-3.98,3.01,5.02
9.46291995048523,-0.38,-3.16,2.6,4.1
9.464303970336914,-0.22,-2.3,2.11,3.12
9.465188980102539,-0.04,-1.29,1.12,1.7
9.475291967391968,0.09,0.01,0.02,0.09
9.483203887939453,0.35,1.45,-0.36,1.53
9.493180990219116,0.72,2.44,-0.09,2.54
9.503209114074707,0.77,3.47,0.44,3.58
9.513936042785645,0.94,4.75,1.04,4.95
9.52404499053955,1.02,5.84,1.29,6.06
9.534215927124023,0.93,6.79,1.2,6.95
9.561856985092163,0.9,7.65,1.11,7.78
9.563232898712158,0.98,8.4,1.13,8.53
9.564095973968506,1.01,9.01,1.19,9.14
9.573598861694336,1.1,9.49,1.56,9.68
9.584604024887085,0.95,9.91,2.16,10.18
9.594568014144897,0.57,10.4,2.76,10.77
9.604846954345703,0.35,10.84,3.28,11.33
9.614773988723755,0.1,11.08,3.82,11.72
9.625098943710327,-0.1,10.76,4.36,11.61
9.634791851043701,-0.33,10.06,4.84,11.16
9.65929102897644,-0.61,9.16,5.38,10.64
9.660665035247803,-0.92,8.02,5.64,9.84
9.664234161376953,-1.02,6.97,5.43,8.89
9.674211025238037,-0.88,6.03,4.89,7.81
9.684471130371094,-0.6,5.07,3.91,6.43
9.694456100463867,-0.31,4.32,2.74,5.12
9.704524040222168,-0.18,3.58,1.85,4.03
9.715220928192139,-0.03,2.61,1.41,2.96
9.725363969802856,0.16,1.53,1.1,1.89
9.735228061676025,0.34,0.7,0.81,1.12
9.763416051864624,0.43,0.01,0.54,0.69
9.764594078063965,0.54,-0.61,0.35,0.88
9.765336990356445,0.67,-1.31,0.09,1.47
9.774925947189331,0.71,-1.98,-0.12,2.1
9.785131931304932,0.53,-2.54,0.06,2.59
9.795331001281738,0.15,-2.97,0.87,3.09
9.805385112762451,-0.38,-3.5,1.81,3.95
9.816516876220703,-0.76,-3.98,2.17,4.59
9.825971126556396,-0.89,-4.31,1.99,4.82
9.836143016815186,-0.82,-4.62,1.49,4.92
9.863412857055664,-0.8,-4.97,0.81,5.09
9.864462852478027,-0.8,-5.21,-0.04,5.27
9.865275859832764,-0.65,-5.4,-0.74,5.48
9.875676155090332,-0.46,-5.73,-1.03,5.83
9.887340068817139,-0.35,-6.18,-0.95,6.26
9.896191120147705,-0.38,-6.65,-0.51,6.68
9.9059739112854,-0.59,-6.98,0.21,7.0
9.91700792312622,-0.82,-7.01,0.87,7.11
9.926559925079346,-1.14,-7.07,1.09,7.24
9.937190055847168,-1.37,-7.16,0.92,7.34
9.967530965805054,-1.52,-7.18,0.5,7.35
9.968641996383667,-1.56,-7.1,0.0,7.26
9.969352960586548,-1.41,-7.17,-0.43,7.31
9.990638971328735,-1.22,-7.44,-0.73,7.57
9.991873025894165,-0.98,-7.75,-0.81,7.85
10.003870964050293,-0.79,-8.02,-0.58,8.07
10.00673794746399,-0.63,-8.3,-0.22,8.32
10.019088983535767,-0.56,-8.46,-0.06,8.47
10.027107954025269,-0.55,-8.48,-0.08,8.49
10.037385940551758,-0.5,-8.38,-0.29,8.39
10.06656789779663,-0.47,-8.23,-0.52,8.25
10.06800103187561,-0.47,-7.94,-0.53,7.97
10.068801879882812,-0.73,-7.41,-0.4,7.45
10.090598106384277,-1.13,-6.69,-0.12,6.78
10.091866970062256,-1.21,-6.1,0.21,6.22
10.104566097259521,-1.15,-5.97,0.48,6.09
10.107492923736572,-1.07,-6.0,1.06,6.18
10.11854100227356,-0.89,-6.04,2.08,6.44
10.127545833587646,-0.66,-5.76,2.97,6.51
10.138072967529297,-0.37,-4.97,3.14,5.89
10.165369987487793,-0.02,-3.8,2.42,4.5
10.166764974594116,0.07,-2.66,1.08,2.87
10.167634963989258,0.02,-1.57,0.13,1.57
10.177706003189087,-0.03,-0.31,0.08,0.32
10.188194990158081,-0.12,0.99,0.78,1.26
10.198041915893555,0.21,2.45,1.63,2.95
10.208127975463867,0.76,3.97,1.94,4.48
10.218709945678711,1.27,5.58,1.52,5.92
10.229165077209473,1.69,7.49,0.77,7.71
10.239008903503418,1.93,9.41,0.27,9.6
10.266782999038696,1.96,11.08,0.16,11.25
10.26792597770691,1.94,12.17,0.44,12.33
10.268800020217896,1.75,12.8,1.02,12.95
10.289674043655396,1.16,13.27,2.0,13.46
10.29093313217163,0.15,13.33,3.05,13.67
10.303636074066162,-0.91,13.26,3.75,13.81
10.309034824371338,-1.82,12.96,4.23,13.75
10.319161891937256,-2.52,12.28,4.8,13.42
10.330057144165039,-2.82,11.33,5.26,12.8
10.339534044265747,-2.72,10.11,5.3,11.73
10.364583015441895,-2.35,8.78,4.76,10.26
10.365988969802856,-1.98,7.53,3.78,8.65
10.368978023529053,-1.52,6.27,2.67,6.98
10.379199028015137,-1.06,4.67,1.69,5.07
10.389494895935059,-0.7,2.91,1.13,3.19
10.399426937103271,-0.4,1.19,1.02,1.61
10.409742832183838,-0.38,-0.37,1.24,1.34
10.42041802406311,-0.56,-1.57,1.76,2.42
10.42996096611023,-0.65,-2.63,2.05,3.39
10.440403938293457,-0.55,-3.72,1.72,4.13
10.467713832855225,-0.26,-4.55,0.98,4.66
10.469120979309082,0.18,-4.97,0.16,4.97
10.470033168792725,0.55,-5.25,-0.63,5.31
10.489137172698975,0.77,-5.46,-1.23,5.64
10.490514993667603,0.83,-5.6,-1.44,5.84
10.503175973892212,0.8,-5.8,-1.24,5.98
10.510305881500244,0.72,-6.06,-0.89,6.16
10.520212173461914,0.68,-6.19,-0.52,6.24
10.531211853027344,0.67,-6.14,-0.04,6.17
10.540924072265625,0.46,-6.26,0.47,6.29
10.568450927734375,0.15,-6.47,0.92,6.53
10.569809913635254,-0.1,-6.56,1.36,6.7
10.570685863494873,-0.23,-6.69,1.47,6.85
10.588837146759033,-0.32,-6.77,1.07,6.86
10.59113097190857,-0.33,-6.66,0.35,6.67
10.602589130401611,-0.2,-6.52,-0.32,6.53
10.611042022705078,-0.15,-6.54,-0.71,6.58
10.621798038482666,-0.22,-6.69,-0.9,6.75
10.631785869598389,-0.31,-6.86,-0.98,6.93
10.641556024551392,-0.35,-7.0,-1.04,7.08
10.671283960342407,-0.47,-7.16,-0.96,7.23
10.672677993774414,-0.62,-7.17,-0.68,7.22
10.673551082611084,-0.73,-7.16,-0.34,7.2
10.688318967819214,-0.8,-7.18,-0.13,7.22
10.691553115844727,-0.65,-7.15,-0.17,7.18
10.701802968978882,-0.4,-7.02,-0.5,7.04
10.71168303489685,-0.27,-6.8,-0.82,6.85
10.72171688079834,-0.17,-6.69,-0.98,6.76
10.732645034790039,-0.11,-6.55,-1.22,6.66
10.74217414855957,-0.14,-6.29,-1.56,6.48
10.770755052566528,-0.13,-6.16,-1.71,6.39
10.772165060043335,-0.25,-6.09,-1.52,6.28
10.77303695678711,-0.48,-5.91,-0.86,5.99
10.788190841674805,-0.79,-5.54,0.26,5.6
10.792334079742432,-1.13,-5.05,1.4,5.36
10.802242040634155,-1.48,-4.43,2.26,5.18
10.812420845031738,-1.67,-3.65,2.77,4.87
10.822466850280762,-1.74,-2.38,3.23,4.37
10.833592891693115,-1.79,-0.71,3.78,4.24
10.842957019805908,-1.53,1.0,4.27,4.64
10.872262954711914,-0.89,2.23,4.45,5.05
10.873644828796387,-0.36,2.99,4.22,5.18
10.87454891204834,0.35,4.06,3.83,5.59
10.886978149414062,1.15,5.83,3.68,6.98
10.892951011657715,1.69,7.74,3.6,8.7
10.902904033660889,2.08,9.35,3.28,10.12
10.913103103637695,2.46,10.6,2.94,11.27
10.92409086227417,2.54,11.57,2.97,12.21
10.934005975723267,2.06,12.45,3.38,13.06
10.943935871124268,1.4,13.01,3.73,13.6
10.971696853637695,0.58,13.03,3.84,13.59
10.973160028457642,-0.27,12.97,3.89,13.54
10.973991870880127,-0.97,12.62,4.05,13.28
10.986205101013184,-1.55,11.83,4.24,12.66
10.994395017623901,-2.08,10.89,4.47,11.95
11.003890037536621,-2.57,9.94,4.65,11.27
11.013811111450195,-2.8,8.93,4.52,10.39
11.023860931396484,-2.57,7.83,3.98,9.15
11.034658908843994,-2.01,6.58,3.33,7.64
11.04428505897522,-1.28,5.07,2.98,6.01
11.0725998878479,-0.53,3.42,2.9,4.51
11.074005126953125,-0.01,1.83,2.79,3.33
11.07492208480835,0.19,0.55,2.69,2.75
11.0850830078125,0.12,-0.41,2.77,2.8
11.094367027282715,0.02,-1.26,2.86,3.12
11.104301929473877,-0.1,-2.21,2.79,3.56
11.114386081695557,-0.19,-3.16,2.55,4.06
11.12523603439331,-0.29,-4.04,2.21,4.61
11.135344982147217,-0.28,-4.74,1.84,5.09
11.145056962966919,-0.27,-5.31,1.42,5.5
11.173230171203613,-0.24,-5.91,1.05,6.0
11.174610137939453,-0.22,-6.5,0.71,6.54
11.175503015518188,-0.27,-7.0,0.5,7.02
11.186215877532959,-0.26,-7.41,0.46,7.42
11.195128917694092,-0.22,-7.78,0.43,7.79
11.20515489578247,-0.2,-8.2,0.34,8.2
11.215191841125488,-0.15,-8.65,0.21,8.65
11.225224018096924,0.0,-9.0,0.07,9.0
11.236068964004517,0.22,-9.25,-0.15,9.25
11.246248960494995,0.44,-9.4,-0.45,9.42
11.274358987808228,0.59,-9.49,-0.72,9.53
11.275781154632568,0.67,-9.51,-0.91,9.57
11.276669979095459,0.68,-9.46,-1.14,9.55
11.285367965698242,0.63,-9.32,-1.44,9.45
11.295779943466187,0.55,-9.09,-1.66,9.25
11.305775165557861,0.54,-8.83,-1.72,9.01
11.315906047821045,0.65,-8.71,-1.54,8.86
11.326014995574951,0.73,-8.6,-1.41,8.74
11.336833000183105,0.7,-8.33,-1.38,8.47
11.346856117248535,0.72,-8.09,-1.41,8.24
11.375416994094849,0.61,-7.88,-1.15,7.98
11.376809120178223,0.21,-7.72,-0.49,7.73
11.377781867980957,-0.25,-7.55,0.14,7.55
11.386322975158691,-0.54,-7.18,0.43,7.21
11.39676809310913,-0.7,-6.69,0.45,6.74
11.406527996063232,-0.86,-6.07,0.46,6.14
11.416589975357056,-0.99,-5.3,0.66,5.43
11.426718950271606,-1.17,-4.59,0.87,4.81
11.43743896484375,-1.15,-3.8,1.02,4.09
11.447604179382324,-0.97,-2.99,1.26,3.38
11.474776029586792,-0.71,-2.55,3.18,4.13
11.476217031478882,-0.95,-1.54,3.11,3.59
11.477128982543945,-0.8,-0.16,2.94,3.05
11.486861944198608,-0.73,0.86,2.74,2.96
11.497194051742554,-0.39,1.72,1.77,2.49
11.507225036621094,-0.2,2.98,1.53,3.35
11.517404079437256,-0.16,4.17,1.54,4.44
11.528180122375488,-0.06,4.97,1.27,5.13
11.537721157073975,0.12,5.85,0.93,5.92
11.548129081726074,0.28,6.84,0.87,6.9
11.575305938720703,0.29,7.7,0.92,7.76
11.576475143432617,0.09,8.54,0.88,8.58
11.577692031860352,-0.07,9.35,0.92,9.39
11.588069915771484,0.06,9.74,1.34,9.83
11.597991943359375,0.36,9.54,1.81,9.71
11.608664989471436,0.64,9.32,2.06,9.56
11.617954969406128,0.78,9.18,2.09,9.44
11.629109859466553,0.56,8.87,2.16,9.14
11.638588905334473,0.38,8.51,2.2,8.79
11.648871898651123,0.27,8.16,2.12,8.43
11.676144123077393,-0.14,8.07,2.32,8.39
11.677304983139038,-0.67,7.89,2.85,8.41
11.678102016448975,-1.17,7.44,3.23,8.19
11.688619136810303,-1.53,6.81,3.55,7.83
11.698773860931396,-1.59,5.71,3.97,7.13
11.708622932434082,-0.92,4.53,3.2,5.62
11.718679904937744,-0.02,3.66,2.85,4.63
11.729607105255127,0.32,3.0,3.17,4.37
11.73904800415039,-0.01,2.23,2.84,3.61
11.749709129333496,0.55,0.63,3.61,3.7
11.777878046035767,0.62,-1.83,3.15,3.69
11.779077053070068,0.56,-2.62,2.81,3.88
11.779865026473999,0.31,-2.94,2.43,3.82
11.802082061767578,-0.12,-3.13,1.69,3.55
11.803351879119873,0.11,-3.68,1.6,4.01
11.815083026885986,0.25,-4.53,1.59,4.8
11.81941294670105,0.23,-5.19,1.29,5.35
11.831622123718262,0.53,-5.3,0.97,5.41
11.839699983596802,0.93,-4.85,1.09,5.05
11.85004186630249,0.76,-4.87,1.78,5.24
11.878850936889648,-0.21,-5.92,2.22,6.32
11.880282878875732,-0.15,-6.15,0.34,6.16
11.881165027618408,-0.8,-6.6,0.49,6.66
11.901954174041748,-1.12,-6.76,0.29,6.85
11.903215885162354,-1.15,-7.14,0.21,7.23
11.914581060409546,-0.98,-7.48,0.52,7.56
11.920178890228271,-0.84,-7.91,1.01,8.01
11.930950164794922,-0.66,-8.61,1.59,8.78
11.94029712677002,-0.38,-9.31,1.74,9.47
11.950778007507324,-0.08,-9.51,1.33,9.6
11.978981018066406,0.21,-9.62,0.64,9.64
11.98042106628418,0.51,-9.58,0.0,9.59
11.981335163116455,0.72,-9.33,-0.38,9.36
12.00192403793335,0.86,-8.96,-0.7,9.02
12.00318193435669,0.85,-8.74,-1.07,8.84
12.013723850250244,0.58,-8.55,-1.21,8.65
12.01807689666748,0.25,-8.24,-1.22,8.33
12.029932022094727,0.07,-7.87,-1.16,7.95
12.039299964904785,0.19,-7.54,-0.94,7.6
12.048859119415283,0.44,-7.22,-0.71,7.26
12.077069997787476,0.82,-6.78,0.07,6.82
12.078389167785645,0.96,-6.23,0.8,6.35
12.079256057739258,0.66,-5.71,1.28,5.88
12.10160207748413,0.33,-5.06,1.47,5.27
12.102840900421143,0.04,-4.16,1.42,4.39
12.114557027816772,-0.28,-3.11,1.2,3.34
12.11886215209961,-0.24,-1.78,1.01,2.06
12.131271839141846,-0.01,-0.38,0.85,0.93
12.13960886001587,0.31,1.12,0.25,1.18
12.149762153625488,0.75,2.79,-0.65,2.96
12.17961311340332,1.18,4.32,-1.22,4.64
12.180938959121704,1.62,5.48,-1.08,5.81
12.181825160980225,2.21,6.19,-0.42,6.58
12.200427055358887,2.54,6.59,0.07,7.06
12.201644897460938,2.43,7.09,0.59,7.51
12.213419914245605,1.83,7.72,1.3,8.03
12.219547033309937,0.91,8.56,2.3,8.91
12.22957706451416,-0.45,9.38,3.67,10.08
12.24055814743042,-1.76,9.96,4.76,11.17
12.250377178192139,-2.59,10.46,5.71,12.19
12.276105880737305,-3.52,10.54,6.76,13.0
12.277495861053467,-4.68,10.14,7.35,13.36
12.280026912689209,-5.44,9.67,6.96,13.09
12.29974102973938,-5.54,9.33,5.93,12.36
12.300961971282959,-5.06,8.85,4.62,11.19
12.31292200088501,-3.93,8.09,3.23,9.55
12.320405960083008,-2.14,6.98,1.37,7.42
12.331139087677002,-1.14,5.6,0.62,5.74
12.341346979141235,-0.88,4.23,0.76,4.38
12.351016998291016,-0.81,3.35,0.9,3.56
12.37941598892212,-0.81,2.64,1.07,2.96
12.380676984786987,-0.68,1.85,1.37,2.4
12.381541013717651,-0.34,1.0,1.53,1.85
12.399698972702026,0.09,0.07,1.5,1.5
12.400920867919922,0.42,-0.78,1.56,1.79
12.413131952285767,0.47,-1.34,1.66,2.18
12.420979022979736,0.45,-1.69,1.6,2.37
12.431911945343018,0.28,-2.02,1.52,2.54
12.441807985305786,0.02,-2.46,1.46,2.86
12.451817989349365,-0.27,-2.91,1.5,3.28
12.48115587234497,-0.41,-3.29,1.64,3.69
12.482481956481934,-0.5,-3.7,1.93,4.2
12.483343124389648,-0.72,-4.27,2.16,4.83
12.499531030654907,-0.8,-4.89,2.26,5.44
12.501617908477783,-0.75,-5.51,2.35,6.03
12.512288093566895,-0.62,-6.08,2.46,6.58
12.521764993667603,-0.4,-6.6,2.28,6.99
12.532691955566406,-0.19,-6.99,2.0,7.27
12.542659044265747,-0.04,-7.39,1.63,7.56
12.552613973617554,0.12,-7.74,1.06,7.81
12.582984924316406,0.29,-7.93,0.28,7.94
12.58474588394165,0.33,-8.1,-0.43,8.11
12.585652828216553,0.4,-8.2,-0.9,8.25
12.598541021347046,0.56,-8.38,-0.98,8.45
12.60229206085205,0.66,-8.78,-0.62,8.82
12.61239504814148,0.71,-9.17,0.0,9.19
12.622376918792725,0.66,-9.42,0.74,9.47
12.633579969406128,0.6,-9.54,1.16,9.62
12.645834922790527,0.5,-9.48,1.26,9.57
12.65549898147583,0.47,-9.3,1.06,9.37
12.686089038848877,0.4,-8.99,0.68,9.02
12.687458038330078,0.33,-8.73,0.5,8.75
12.688354015350342,0.4,-8.53,0.34,8.54
12.69684100151062,0.46,-8.27,0.07,8.28
12.705549955368042,0.44,-7.82,-0.07,7.83
12.715487957000732,0.44,-7.48,-0.07,7.49
12.725658893585205,0.49,-7.08,0.04,7.09
12.736469030380249,0.67,-6.63,0.24,6.66
12.746610164642334,0.81,-6.13,0.48,6.2
12.756468057632446,0.95,-5.23,0.63,5.35
12.784855842590332,0.75,-3.83,0.64,3.95
12.786270141601562,0.31,-2.16,0.75,2.3
12.787163972854614,0.17,-0.55,0.86,1.03
12.795970916748047,0.21,0.56,0.77,0.97
12.806339025497437,0.3,1.36,0.73,1.57
12.816380977630615,0.77,2.58,0.85,2.82
12.826403141021729,1.36,4.0,0.83,4.3
12.837219953536987,1.58,5.22,0.76,5.5
12.847341060638428,1.66,6.33,0.97,6.61
12.857119083404541,1.78,7.24,1.06,7.53
12.885059833526611,1.91,7.94,0.91,8.21
12.886509895324707,1.99,8.67,0.56,8.91
12.887402057647705,1.89,9.48,0.31,9.67
12.897168159484863,1.42,10.32,0.58,10.43
12.907521963119507,0.36,10.95,1.54,11.06
12.917886972427368,-0.93,11.17,3.11,11.63
12.92731499671936,-2.23,10.91,4.68,12.07
12.937961101531982,-3.29,10.55,5.79,12.47
12.948071002960205,-3.92,10.14,5.99,12.41
12.95787000656128,-3.93,9.5,5.09,11.47
12.98082685470581,-3.3,8.68,3.78,10.02
12.982259035110474,-2.5,7.55,2.62,8.37
12.987277030944824,-1.77,6.26,1.58,6.69
12.997375965118408,-1.07,5.2,0.6,5.34
13.007781982421875,-0.5,4.23,-0.02,4.25
13.017781019210815,-0.24,3.14,0.01,3.14
13.027763843536377,-0.24,2.16,0.7,2.28
13.038002967834473,-0.36,1.41,1.54,2.11
13.048850059509277,-0.58,0.81,1.88,2.12
13.059053897857666,-0.65,0.52,1.8,1.98
13.088364124298096,-0.51,0.25,1.49,1.59
13.08974003791809,-0.31,-0.34,1.22,1.3
13.090574979782104,0.04,-0.9,1.17,1.47
13.09804916381836,0.41,-1.46,0.91,1.76
13.108160018920898,0.54,-2.04,0.72,2.22
13.118528842926025,0.02,-2.39,1.13,2.64
13.128698825836182,-0.58,-2.58,1.69,3.13
13.138692855834961,-0.98,-2.99,2.05,3.75
13.149521827697754,-1.11,-3.51,2.36,4.37
13.159610033035278,-1.1,-4.21,2.59,5.06
13.186635971069336,-1.06,-4.63,2.59,5.41
13.187705993652344,-1.22,-4.82,2.06,5.38
13.188613891601562,-1.38,-4.91,2.03,5.48
13.198862075805664,-1.34,-5.37,2.3,5.99
13.210394859313965,-1.1,-5.92,2.46,6.5
13.219218015670776,-0.78,-6.41,2.54,6.93
13.229299068450928,-0.52,-6.86,2.32,7.26
13.239334106445312,-0.35,-7.2,1.94,7.46
13.249971866607666,-0.26,-7.49,1.54,7.65
13.260034084320068,-0.17,-7.84,1.11,7.92
13.288180828094482,-0.02,-8.15,0.64,8.17
13.289320945739746,0.15,-8.5,0.1,8.5
13.290074825286865,0.38,-8.82,-0.27,8.83
13.299885988235474,0.69,-9.06,-0.41,9.09
13.309791088104248,1.04,-9.29,-0.5,9.36
13.319869995117188,1.29,-9.56,-0.38,9.65
13.32991886138916,1.42,-9.71,-0.07,9.81
13.340095043182373,1.5,-9.62,0.15,9.73
13.350929021835327,1.44,-9.28,0.22,9.39
13.36076307296753,1.3,-8.8,0.14,8.89
13.388608932495117,1.09,-8.3,-0.04,8.37
13.389714002609253,0.86,-7.76,-0.37,7.81
13.390510082244873,0.85,-7.27,-0.76,7.35
13.400192022323608,0.89,-6.85,-0.87,6.96
13.410534858703613,0.69,-6.39,-0.58,6.45
13.42060399055481,0.23,-5.74,-0.08,5.74
13.430531024932861,-0.29,-4.76,0.6,4.8
13.440752029418945,-0.73,-3.63,1.37,3.94
13.451503992080688,-0.81,-2.55,1.66,3.14
13.461501121520996,-0.58,-1.56,1.44,2.2
13.489449977874756,-0.46,-0.62,0.86,1.15
13.49062204360962,-0.54,0.42,0.56,0.88
13.491431951522827,-0.59,1.54,0.44,1.7
13.512794971466064,-0.59,2.74,0.46,2.84
13.514008045196533,-0.44,4.07,0.87,4.18
13.526918888092041,-0.57,5.25,1.55,5.5
13.531414985656738,-0.68,6.28,2.39,6.75
13.541393995285034,-0.56,7.4,2.87,7.95
13.55226993560791,-0.66,8.64,3.08,9.19
13.562016010284424,-0.77,9.63,3.03,10.12
13.591176986694336,-0.79,10.41,2.66,10.77
13.592576026916504,-0.86,11.15,2.53,11.46
13.593492031097412,-1.06,11.37,2.51,11.69
13.611155033111572,-1.55,11.49,2.58,11.87
13.612481117248535,-2.27,11.66,2.9,12.22
13.624476909637451,-2.89,11.35,3.26,12.15
13.632792949676514,-3.28,10.85,3.72,11.92
13.642444133758545,-3.49,10.05,4.08,11.39
13.652185916900635,-3.3,9.02,4.0,10.4
13.662776947021484,-2.88,7.7,3.67,9.0
13.689355850219727,-2.41,6.35,3.3,7.55
13.690718173980713,-1.77,5.02,2.66,5.95
13.692239999771118,-1.11,3.72,1.91,4.32
13.712037086486816,-0.53,2.67,1.3,3.01
13.713300943374634,0.11,1.85,0.68,1.97
13.72636604309082,0.64,0.78,0.32,1.05
13.732813835144043,1.07,-0.33,0.25,1.14
13.74272108078003,1.18,-1.28,0.25,1.75
13.753635883331299,0.77,-1.94,0.56,2.16
13.763437986373901,0.28,-2.07,1.08,2.35
13.79141092300415,-0.32,-2.27,1.49,2.73
13.792861938476562,-0.83,-2.48,2.26,3.45
13.793771028518677,-0.97,-2.73,3.06,4.21
13.811328887939453,-0.89,-3.38,3.43,4.89
13.81365704536438,-0.61,-3.95,3.73,5.46
13.825910091400146,-0.42,-4.33,3.89,5.83
13.83346700668335,-0.32,-4.91,3.86,6.25
13.843438148498535,-0.22,-5.74,3.6,6.77
13.854429006576538,-0.1,-6.4,2.99,7.06
13.864137172698975,0.08,-6.76,2.17,7.1
13.892323017120361,0.27,-7.14,1.49,7.29
13.893735885620117,0.41,-7.53,1.06,7.61
13.894637107849121,0.48,-7.73,0.73,7.77
13.911974906921387,0.55,-7.81,0.57,7.85
13.914046049118042,0.52,-7.99,0.62,8.03
13.92487096786499,0.47,-8.14,0.74,8.18
13.934342861175537,0.4,-8.23,0.92,8.29
13.944216966629028,0.27,-8.39,1.12,8.46
13.955136060714722,0.09,-8.56,1.26,8.65
13.964740991592407,-0.05,-8.71,1.37,8.81
13.993156909942627,-0.06,-8.73,1.54,8.86
13.994546890258789,0.04,-8.62,1.54,8.75
13.995366096496582,0.18,-8.54,1.18,8.62
14.011721134185791,0.4,-8.48,0.79,8.52
14.014758110046387,0.53,-8.49,0.47,8.51
14.024809837341309,0.58,-8.48,0.33,8.5
14.03481912612915,0.56,-8.45,0.37,8.47
14.045745849609375,0.39,-8.27,0.45,8.29
14.055814027786255,0.2,-7.87,0.65,7.89
14.065339088439941,-0.02,-7.2,0.55,7.22
14.09348201751709,-0.28,-6.36,0.05,6.36
14.094881057739258,-0.42,-5.3,-0.19,5.32
14.095832824707031,-0.31,-4.6,-0.26,4.61
14.111073017120361,-0.21,-4.39,-0.26,4.4
14.115455150604248,-0.05,-4.09,0.12,4.09
14.125211954116821,-0.05,-3.68,0.72,3.75
14.135600090026855,-0.12,-2.85,1.39,3.17
14.145694971084595,0.02,-1.44,1.72,2.24
14.156450033187866,0.26,0.05,1.45,1.47
14.165902137756348,0.56,1.4,0.58,1.61
14.194539070129395,0.51,2.88,-0.62,2.98
14.196020126342773,0.19,4.31,-1.18,4.47
14.196928977966309,-0.09,5.46,-0.91,5.53
14.21058702468872,-0.51,6.38,-0.08,6.4
14.21619987487793,-0.82,7.06,1.17,7.2
14.226481914520264,-0.98,7.55,2.29,7.95
14.236270904541016,-0.89,8.27,2.55,8.69
14.246387958526611,-0.79,8.84,2.28,9.16
14.257284164428711,-0.55,9.19,1.91,9.4
14.267214059829712,-0.23,9.58,1.42,9.68
14.295210838317871,0.01,9.84,0.96,9.88
14.296584129333496,-0.26,9.97,0.86,10.01
14.29748797416687,-1.02,10.13,1.35,10.27
14.308012962341309,-2.15,10.01,2.33,10.5
14.317492008209229,-3.23,9.74,3.33,10.78
14.32743501663208,-4.05,9.4,3.86,10.93
14.336966037750244,-4.41,8.86,4.05,10.69
14.34703803062439,-4.22,8.1,3.68,9.84
14.357118129730225,-3.63,7.47,2.86,8.78
14.367877960205078,-3.03,6.75,2.05,7.67
14.391299962997437,-2.59,5.97,1.37,6.65
14.392695903778076,-2.11,5.17,0.75,5.63
14.397119998931885,-1.67,4.14,0.41,4.48
14.40802001953125,-1.69,3.08,0.65,3.57
14.417543888092041,-2.15,2.38,1.86,3.7
14.427637100219727,-2.43,1.64,3.4,4.48
14.437525987625122,-2.36,0.71,4.11,4.79
14.4477858543396,-2.08,-0.22,4.26,4.74
14.458685874938965,-1.63,-1.09,4.25,4.68
14.468195915222168,-1.07,-1.91,4.03,4.58
14.496422052383423,-0.56,-2.84,3.67,4.67
14.497867107391357,0.0,-3.75,3.33,5.01
14.498775005340576,0.46,-4.44,2.81,5.27
14.509382009506226,0.7,-4.94,2.31,5.49
14.518254041671753,0.65,-5.39,1.9,5.75
14.528278827667236,0.42,-5.87,1.73,6.13
14.538311958312988,0.16,-6.26,1.74,6.49
14.548486948013306,0.02,-6.64,1.75,6.86
14.559309005737305,0.14,-7.1,1.78,7.32
14.569408893585205,0.28,-7.43,1.85,7.66
14.596510887145996,0.25,-7.75,1.87,7.97
14.597929000854492,0.26,-8.03,1.81,8.23
14.598827838897705,0.27,-8.2,1.56,8.35
14.608616828918457,0.31,-8.34,1.1,8.41
14.61884593963623,0.33,-8.52,0.7,8.55
14.629134178161621,0.35,-8.7,0.46,8.71
14.639117002487183,0.31,-8.97,0.43,8.98
14.649142026901245,0.27,-9.26,0.69,9.28
14.659997940063477,0.35,-9.54,1.12,9.61
14.6700119972229,0.55,-9.71,1.38,9.82
14.697744846343994,0.84,-9.8,1.38,9.93
14.698987007141113,1.03,-9.94,1.21,10.06
14.69991683959961,1.15,-9.95,0.96,10.06
14.709575176239014,1.05,-9.72,0.71,9.8
14.719636917114258,0.77,-9.27,0.36,9.3
14.729712963104248,0.6,-8.68,0.16,8.7
14.73982286453247,0.53,-8.32,0.25,8.34
14.750655174255371,0.49,-8.09,0.39,8.11
14.760477066040039,0.35,-7.65,0.8,7.69
14.770556926727295,0.3,-7.12,1.47,7.27
14.798676013946533,0.33,-6.69,1.62,6.89
14.799891948699951,0.55,-6.04,1.44,6.23
14.800724029541016,0.64,-5.32,1.24,5.49
14.810134887695312,0.5,-4.35,0.95,4.48
14.822885036468506,0.4,-3.25,0.5,3.31
14.830502986907959,0.27,-2.17,0.02,2.18
14.840376853942871,0.23,-0.74,-0.16,0.79
14.85131311416626,0.24,0.76,-0.01,0.79
14.860841035842896,0.24,2.16,0.11,2.17
14.871456146240234,0.25,3.34,-0.06,3.34
14.902688980102539,0.11,4.16,-0.17,4.16
14.903807163238525,-0.13,5.12,0.21,5.12
14.904613971710205,-0.47,6.39,0.67,6.44
14.926219940185547,-0.81,7.76,1.0,7.86
14.927441120147705,-1.05,8.9,1.39,9.06
14.93860912322998,-1.57,9.67,2.16,10.03
14.941358089447021,-1.98,10.37,3.37,11.08
14.953634977340698,-1.99,10.68,4.43,11.73
14.96232795715332,-2.06,10.69,5.22,12.07
14.971620082855225,-2.42,10.86,5.97,12.62
14.996211051940918,-2.99,10.93,5.96,12.8
14.99738597869873,-3.38,10.95,4.84,12.43
15.001397132873535,-3.32,10.85,3.48,11.86
15.012406826019287,-3.0,10.35,2.47,11.05
15.022570133209229,-2.57,9.56,1.81,10.06
15.031846046447754,-2.32,8.83,1.63,9.27
15.041914939880371,-2.22,8.02,1.55,8.46
15.051876068115234,-2.2,7.08,1.36,7.53
15.062737941741943,-2.13,6.03,1.17,6.5
15.072729110717773,-1.83,5.14,1.02,5.55
15.100057125091553,-1.56,4.24,0.84,4.59
15.101169109344482,-1.5,3.41,0.8,3.81
15.101969957351685,-1.29,2.69,1.07,3.16
15.112138032913208,-1.13,1.68,1.49,2.51
15.12251615524292,-0.94,0.84,1.79,2.18
15.132556915283203,-0.62,0.14,1.91,2.01
15.142579078674316,-0.39,-0.86,1.96,2.17
15.153475999832153,-0.08,-1.93,2.14,2.88
15.163666009902954,0.31,-2.98,2.09,3.65
15.17335295677185,0.56,-4.05,1.84,4.48
15.202255010604858,0.63,-4.91,1.52,5.17
15.203464984893799,0.45,-5.4,1.26,5.56
15.204255104064941,0.15,-5.71,1.4,5.88
15.225589990615845,0.02,-5.99,1.89,6.28
15.226830959320068,0.05,-6.31,2.12,6.65
15.237519025802612,0.2,-6.72,2.21,7.07
15.243368148803711,0.36,-7.32,2.52,7.74
15.254302024841309,0.47,-7.9,2.83,8.4
15.26361894607544,0.48,-8.17,2.87,8.67
15.27421498298645,0.39,-8.24,2.65,8.66
15.304235935211182,0.26,-8.29,2.28,8.6
15.305604934692383,0.18,-8.17,1.75,8.35
15.306509971618652,0.17,-8.19,1.24,8.28
15.324542999267578,0.1,-8.41,1.27,8.5
15.325780868530273,0.01,-8.52,1.64,8.67
15.336956977844238,-0.06,-8.47,1.88,8.67
15.344094038009644,-0.08,-8.31,2.07,8.56
15.354007959365845,-0.1,-8.26,2.23,8.55
15.364784002304077,-0.13,-8.28,2.28,8.58
15.374651908874512,-0.14,-8.23,2.2,8.52
15.402858972549438,-0.09,-8.18,2.1,8.44
15.404262065887451,0.0,-8.16,1.97,8.39
15.405169010162354,0.05,-7.93,1.72,8.11
15.424776077270508,0.06,-7.58,1.19,7.67
15.425940990447998,0.28,-7.36,0.71,7.39
15.437064170837402,0.58,-7.35,0.42,7.38
15.444704055786133,0.72,-7.23,0.22,7.26
15.454972982406616,0.84,-6.82,0.4,6.88
15.465746879577637,0.89,-6.66,0.83,6.77
15.47517204284668,0.72,-6.52,0.97,6.63
15.501696109771729,0.45,-6.17,0.83,6.24
15.503129005432129,0.1,-5.69,0.75,5.74
15.504899024963379,-0.24,-5.08,0.96,5.17
15.524786949157715,-0.41,-4.23,0.96,4.35
15.52597713470459,-0.16,-2.79,0.48,2.83
15.536455154418945,0.15,-1.28,-0.42,1.35
15.545773029327393,0.42,0.1,-1.22,1.29
15.555546045303345,0.56,1.09,-1.68,2.07
15.566659927368164,0.35,1.94,-1.8,2.66
15.576004028320312,0.06,3.16,-1.41,3.46
15.60379695892334,-0.25,4.5,-0.86,4.58
15.605177879333496,-0.57,5.83,-0.34,5.86
15.60596513748169,-0.89,7.03,0.16,7.08
15.624093055725098,-1.17,8.09,0.62,8.19
15.625910997390747,-1.6,9.16,1.39,9.4
15.636938095092773,-1.86,9.93,2.56,10.42
15.646624088287354,-2.08,10.54,3.67,11.35
15.656206130981445,-2.41,11.15,4.78,12.36
15.667330980300903,-2.92,11.46,5.68,13.11
15.676738023757935,-3.23,11.44,5.94,13.28
15.704090118408203,-3.26,11.32,5.45,12.97
15.70553994178772,-2.96,10.85,4.73,12.2
15.706465005874634,-2.56,9.9,3.89,10.94
15.72300100326538,-2.2,8.87,3.02,9.62
15.726704120635986,-1.95,8.08,2.35,8.63
15.736640930175781,-1.78,7.47,1.77,7.88
15.746922016143799,-1.58,6.75,0.98,7.0
15.757192134857178,-1.3,6.1,0.24,6.24
15.767761945724487,-1.39,5.43,0.03,5.6
15.777281045913696,-1.65,4.93,0.82,5.26
15.806850910186768,-1.26,4.33,1.72,4.82
15.808223009109497,-0.78,3.56,1.96,4.13
15.809101104736328,-0.56,2.9,2.18,3.67
15.821807861328125,-0.42,2.44,2.33,3.39
15.827413082122803,-0.53,1.99,2.14,2.96
15.837370872497559,-0.72,1.41,1.88,2.45
15.84773302078247,-0.69,0.63,1.8,2.02
15.857571125030518,-0.44,-0.32,1.75,1.83
15.868369102478027,-0.28,-1.5,2.02,2.53
15.877845048904419,-0.37,-2.83,2.59,3.85
15.908904075622559,-0.54,-3.92,3.17,5.07
15.910321950912476,-0.64,-4.92,3.39,6.0
15.911195993423462,-0.7,-5.86,3.11,6.67
15.921807050704956,-0.75,-6.53,2.61,7.07
15.928114891052246,-0.78,-6.98,2.07,7.32
15.938400030136108,-0.73,-7.43,1.54,7.62
15.94813585281372,-0.48,-7.83,1.02,7.91
15.958302974700928,-0.2,-8.1,0.47,8.11
15.96920108795166,-0.02,-8.42,0.12,8.42
15.978568077087402,0.1,-8.84,0.12,8.84
16.007742881774902,0.16,-9.24,0.53,9.25
16.00915002822876,0.09,-9.59,1.04,9.64
16.010004997253418,-0.06,-9.79,1.44,9.89
16.02011799812317,-0.23,-9.95,1.67,10.09
16.025887966156006,-0.4,-10.09,1.74,10.24
16.036216020584106,-0.56,-10.08,1.65,10.22
16.046287059783936,-0.68,-9.94,1.4,10.06
16.05641198158264,-0.62,-9.91,1.02,9.98
16.067126035690308,-0.34,-10.02,0.64,10.04
16.076979160308838,0.01,-10.19,0.33,10.19
16.105287075042725,0.39,-10.29,0.11,10.29
16.106642961502075,0.73,-10.39,-0.12,10.41
16.10758900642395,0.95,-10.5,-0.3,10.54
16.12177610397339,1.09,-10.57,-0.48,10.63
16.126654148101807,1.12,-10.44,-0.68,10.52
16.136790990829468,0.97,-10.04,-0.76,10.11
16.146939039230347,0.67,-9.25,-0.55,9.29
16.15710210800171,0.39,-8.39,0.05,8.39
16.16779613494873,0.39,-7.74,0.82,7.79
16.177536964416504,0.43,-7.27,1.57,7.45
16.20721197128296,0.42,-6.73,1.98,7.02
16.208531856536865,0.48,-5.9,1.9,6.21
16.20936894416809,0.26,-4.91,1.56,5.15
16.21836495399475,-0.12,-4.02,0.98,4.13
16.227624893188477,-0.03,-2.26,-0.16,2.26
16.237635135650635,0.28,1.0,-1.72,2.0
16.247745037078857,0.17,4.48,-2.0,4.9
16.25849199295044,-0.27,6.79,-0.43,6.8
16.268584966659546,-1.13,8.17,2.41,8.59
16.278632164001465,-1.69,9.33,5.26,10.84
16.3074951171875,-2.06,10.36,7.46,12.93
16.308879852294922,-2.22,11.08,8.82,14.33
16.30977702140808,-2.37,11.81,9.01,15.04
16.318037033081055,-2.71,12.49,8.39,15.28
16.32827401161194,-2.6,13.04,7.74,15.38
16.33860492706299,-2.24,13.11,6.81,14.94
16.348474979400635,-1.83,13.23,5.39,14.4
16.358479976654053,-1.58,13.19,3.89,13.84
16.36930799484253,-1.86,13.02,2.89,13.46
16.379130840301514,-2.31,12.58,2.14,12.96
16.40571403503418,-2.73,11.86,1.74,12.29
16.40705108642578,-2.85,10.93,1.75,11.43
16.408627033233643,-2.63,9.89,1.83,10.39
16.41866111755371,-2.33,8.72,1.8,9.2
16.429080963134766,-2.02,7.5,1.44,7.89
16.43905997276306,-1.74,6.47,1.11,6.79
16.449185848236084,-1.75,5.47,1.26,5.87
16.459001064300537,-1.75,4.35,1.68,4.98
16.470003128051758,-1.58,3.16,1.99,4.05
16.479916095733643,-1.29,2.04,2.15,3.23
16.511152029037476,-0.99,0.95,2.03,2.45
16.51250982284546,-0.81,-0.08,1.8,1.97
16.513357162475586,-0.69,-1.02,1.74,2.13
16.51938486099243,-0.61,-2.06,1.73,2.75
16.529603958129883,-0.45,-3.14,1.74,3.61
16.539746046066284,-0.18,-4.22,1.98,4.66
16.54981517791748,0.06,-5.26,2.28,5.73
16.560553073883057,0.28,-6.08,2.42,6.54
16.570664882659912,0.36,-6.8,2.31,7.19
16.580748081207275,0.03,-7.29,2.18,7.6
16.6089129447937,-0.45,-7.5,2.33,7.86
16.610108852386475,-0.86,-7.8,2.56,8.25
16.610882997512817,-0.93,-8.1,2.53,8.53
16.620076179504395,-0.63,-8.37,2.32,8.7
16.63302993774414,-0.19,-8.78,2.0,9.0
16.643105030059814,0.23,-9.07,1.71,9.23
16.65316390991211,0.48,-9.29,1.54,9.42
16.663944959640503,0.61,-9.85,1.09,9.92
16.673436164855957,0.74,-9.31,1.61,9.47
16.684036016464233,0.48,-9.09,1.35,9.2
16.71465015411377,0.17,-9.34,0.58,9.35
16.715792179107666,0.01,-8.97,0.52,8.98
16.71662187576294,-0.23,-9.03,0.5,9.04
16.73618197441101,-0.47,-9.37,0.6,9.4
16.737418174743652,-0.34,-9.56,0.97,9.61
16.749773025512695,-0.04,-9.84,1.34,9.93
16.75386095046997,0.2,-10.16,1.36,10.25
16.76437497138977,0.39,-10.52,1.15,10.58
16.774698972702026,0.58,-10.57,0.8,10.61
16.78442096710205,0.75,-10.0,0.22,10.03
16.813876152038574,0.84,-9.37,-0.48,9.41
16.815271854400635,0.72,-8.96,-1.02,9.04
16.816231966018677,0.43,-8.43,-1.05,8.5
16.835790157318115,0.23,-7.56,-0.81,7.6
16.837016105651855,0.01,-6.79,-0.45,6.8
16.84993600845337,-0.21,-6.47,0.3,6.48
16.85459613800049,-0.29,-5.97,1.27,6.11
16.86449694633484,-0.27,-5.12,1.81,5.43
16.875268936157227,-0.14,-3.86,2.37,4.53
16.885195016860962,-0.25,-2.69,3.25,4.22
16.912211894989014,-0.66,-1.42,4.25,4.52
16.91357398033142,-1.13,0.29,4.79,4.93
16.91454792022705,-1.6,1.85,4.68,5.28
16.93524408340454,-1.74,3.47,4.35,5.83
16.936490058898926,-1.5,5.26,3.91,6.72
16.949769973754883,-1.32,6.64,3.31,7.53
16.955353021621704,-1.05,7.18,2.66,7.72
16.965204000473022,-0.64,7.56,2.06,7.86
16.976078033447266,-0.3,8.19,1.43,8.31
16.985804080963135,-0.3,8.71,0.62,8.73
17.014820098876953,-0.27,9.29,0.38,9.3
17.016258001327515,-0.17,9.68,0.64,9.7
17.01718807220459,-0.28,9.88,0.87,9.92
17.03355598449707,-0.54,10.28,0.69,10.31
17.03579807281494,-1.05,10.73,0.16,10.78
17.048009872436523,-1.62,11.15,-0.01,11.26
17.056519985198975,-2.28,11.24,0.22,11.47
17.066149950027466,-2.94,11.24,0.69,11.63
17.076848030090332,-3.47,10.89,1.31,11.5
17.0870418548584,-3.73,10.18,1.8,10.99
17.111310958862305,-3.67,9.5,1.8,10.34
17.112523078918457,-3.28,8.62,1.59,9.35
17.11615300178528,-2.69,7.54,1.49,8.14
17.13440203666687,-2.06,6.6,1.38,7.05
17.136306047439575,-1.48,5.88,1.16,6.17
17.149090051651,-0.99,5.2,1.14,5.41
17.15707302093506,-0.76,4.55,1.17,4.75
17.166682958602905,-0.68,4.07,1.06,4.26
17.177611827850342,-0.51,3.55,1.27,3.8
17.187155961990356,-0.42,2.62,1.8,3.2
17.215841054916382,-0.32,1.48,2.48,2.9
17.217204093933105,-0.18,0.39,3.29,3.31
17.21810007095337,-0.05,-0.53,4.15,4.18
17.234575033187866,0.07,-1.34,4.63,4.82
17.23703908920288,0.1,-2.24,4.62,5.13
17.248258113861084,0.11,-3.09,4.29,5.28
17.257290840148926,0.13,-3.94,3.73,5.42
17.26740789413452,0.12,-4.68,3.06,5.59
17.27876091003418,0.04,-5.34,2.36,5.83
17.2882981300354,-0.02,-5.92,1.86,6.2
17.315489053726196,-0.12,-6.59,1.71,6.8
17.316921949386597,-0.2,-7.29,1.83,7.51
17.31782102584839,-0.59,-7.8,2.23,8.13
17.333781957626343,-0.9,-8.11,2.93,8.66
17.337687969207764,-0.89,-8.5,3.37,9.18
17.348654985427856,-0.67,-8.93,3.26,9.53
17.358062028884888,-0.27,-9.13,2.37,9.43
17.368038177490234,0.18,-9.08,1.26,9.16
17.378926992416382,0.42,-9.01,0.46,9.03
17.388291835784912,0.29,-9.05,0.0,9.05
17.41769504547119,-0.08,-8.86,-0.04,8.86
17.41908884048462,-0.34,-8.59,-0.07,8.59
17.419998168945312,-0.43,-8.6,-0.25,8.61
17.433552026748657,-0.3,-8.79,-0.32,8.8
17.43846607208252,-0.09,-8.96,-0.17,8.96
17.448791980743408,0.05,-9.08,0.06,9.08
17.45882296562195,0.04,-9.01,0.25,9.01
17.46889305114746,0.0,-8.72,0.37,8.72
17.47977900505066,0.05,-8.44,0.3,8.44
17.488976001739502,0.14,-8.34,-0.04,8.34
17.5168719291687,0.11,-8.26,-0.53,8.27
17.518309116363525,0.08,-8.15,-0.75,8.18
17.51927089691162,0.05,-8.13,-0.66,8.15
17.53338098526001,-0.19,-8.19,-0.21,8.19
17.539103984832764,-0.44,-8.34,0.47,8.36
17.549360990524292,-0.52,-8.36,0.82,8.41
17.559563159942627,-0.42,-8.31,0.7,8.35
17.569578170776367,-0.29,-8.16,0.58,8.18
17.580277919769287,-0.31,-7.72,0.65,7.75
17.58975315093994,-0.36,-6.63,0.95,6.7
17.619379997253418,-0.37,-5.26,1.2,5.4
17.620768070220947,-0.5,-3.71,1.45,4.01
17.621647834777832,-0.45,-1.98,1.63,2.6
17.631227016448975,-0.45,-0.15,1.75,1.81
17.639913082122803,-0.46,1.76,2.16,2.82
17.65003800392151,-0.37,3.5,2.78,4.48
17.66004991531372,-0.39,4.91,3.63,6.11
17.67053198814392,-0.56,5.94,4.85,7.68
17.68095302581787,-0.78,6.85,5.6,8.88
17.69039797782898,-0.8,7.88,5.6,9.7
17.720561027526855,-0.6,8.99,5.19,10.39
17.722000122070312,-0.31,9.82,4.27,10.71
17.722962856292725,0.33,10.62,2.91,11.01
17.73084306716919,0.8,11.34,1.44,11.45
17.741342067718506,0.92,12.15,0.38,12.19
17.75133514404297,0.44,12.9,0.19,12.9
17.761693954467773,-0.57,13.03,0.92,13.07
17.771666049957275,-1.52,12.67,2.03,12.92
17.781888961791992,-2.13,12.08,2.99,12.62
17.79113483428955,-2.52,11.34,3.24,12.06
17.816737174987793,-2.77,10.59,2.99,11.34
17.818089962005615,-2.78,9.84,2.68,10.57
17.821001052856445,-2.69,8.76,2.21,9.42
17.83220100402832,-2.59,7.74,1.66,8.32
17.84125804901123,-2.32,6.95,1.31,7.44
17.85153603553772,-1.76,5.9,0.97,6.23
17.861454963684082,-1.12,4.68,0.67,4.85
17.871653079986572,-0.57,3.53,0.57,3.62
17.882387161254883,-0.13,2.31,0.45,2.35
17.892598152160645,0.21,1.14,0.26,1.18
17.91930389404297,0.35,0.18,0.06,0.39
17.920665979385376,0.4,-0.72,-0.17,0.84
17.921962022781372,0.33,-1.49,-0.3,1.55
17.93186902999878,0.05,-2.16,-0.09,2.16
17.941833972930908,-0.34,-2.65,0.43,2.7
17.95222496986389,-0.57,-3.14,0.94,3.32
17.962385177612305,-0.65,-3.78,1.37,4.07
17.972405910491943,-0.68,-4.45,1.73,4.82
17.983273029327393,-0.72,-5.06,2.13,5.53
17.993175983428955,-0.75,-5.62,2.54,6.21
18.01962900161743,-0.71,-5.93,2.97,6.67
18.021050930023193,-0.59,-6.14,3.42,7.05
18.02235507965088,-0.41,-6.52,3.53,7.42
18.032511949539185,-0.34,-6.83,3.28,7.58
18.042593002319336,-0.21,-6.87,2.8,7.42
18.052988052368164,-0.11,-6.86,2.3,7.23
18.06328797340393,-0.15,-7.01,2.06,7.3
18.073115825653076,-0.14,-7.27,2.0,7.54
18.08381700515747,-0.15,-7.53,1.89,7.76
18.093717098236084,-0.18,-7.68,1.66,7.85
18.12254810333252,-0.21,-7.77,1.49,7.91
18.123605966567993,-0.21,-7.89,1.32,8.0
18.12433910369873,-0.14,-7.99,1.08,8.06
18.133349895477295,-0.03,-8.06,0.87,8.1
18.14466404914856,0.15,-8.16,0.74,8.19
18.15376615524292,0.39,-8.26,0.6,8.29
18.163611888885498,0.71,-8.39,0.43,8.43
18.17368984222412,0.98,-8.57,0.29,8.63
18.184425830841064,1.18,-8.65,0.24,8.73
18.19441509246826,1.19,-8.56,0.13,8.64
18.22458505630493,1.01,-8.23,0.01,8.29
18.225749015808105,0.76,-7.85,-0.1,7.88
18.22656798362732,0.42,-7.53,-0.3,7.54
18.248517990112305,-0.05,-7.14,-0.46,7.15
18.249753952026367,-0.5,-6.69,-0.18,6.71
18.261626958847046,-0.84,-6.29,0.34,6.35
18.264320850372314,-0.94,-5.88,0.94,6.02
18.277493000030518,-0.95,-5.58,1.34,5.81
18.285367012023926,-1.12,-5.1,1.54,5.44
18.295006036758423,-1.21,-4.5,1.65,4.94
18.323982000350952,-1.1,-3.97,1.15,4.27
18.32538414001465,-0.84,-3.23,0.26,3.34
18.32624912261963,-0.35,-2.78,-0.37,2.82
18.34825301170349,0.31,-2.6,-0.43,2.65
18.349506855010986,0.9,-1.89,0.22,2.1
18.361123085021973,1.27,-0.98,1.01,1.89
18.365487098693848,1.06,0.51,1.93,2.26
18.377151012420654,0.42,2.53,2.53,3.6
18.385892868041992,-0.29,4.51,2.71,5.26
18.395721912384033,-0.77,6.35,2.65,6.92
18.42487096786499,-0.92,7.86,2.3,8.24
18.426175117492676,-0.92,8.91,1.9,9.15
18.427011966705322,-0.96,10.01,1.62,10.18
18.445918083190918,-1.08,11.02,1.64,11.19
18.446820974349976,-1.0,11.48,1.68,11.64
18.45904016494751,-0.73,11.66,1.58,11.78
18.466490030288696,-0.45,11.51,1.6,11.62
18.476361989974976,-0.3,11.0,1.82,11.15
18.486216068267822,-0.62,10.56,2.15,10.79
18.496395111083984,-1.38,10.48,2.51,10.86
18.52155303955078,-2.41,10.49,2.68,11.09
18.522719860076904,-3.53,10.47,2.71,11.37
18.526392936706543,-4.24,10.32,2.8,11.5
18.536842823028564,-4.23,9.59,2.85,10.86
18.546051025390625,-3.62,8.32,2.73,9.47
18.556265830993652,-2.88,6.93,2.54,7.92
18.566461086273193,-2.22,5.68,2.32,6.52
18.57650899887085,-1.46,4.59,1.96,5.2
18.586647033691406,-0.66,3.37,1.62,3.79
18.597299098968506,0.16,2.16,1.35,2.55
18.625650882720947,0.78,1.08,1.05,1.69
18.626821041107178,0.91,0.19,0.81,1.23
18.627568006515503,0.69,-0.39,0.95,1.23
18.64734411239624,0.32,-0.64,1.39,1.56
18.648617029190063,0.07,-0.93,1.71,1.94
18.660397052764893,-0.09,-1.51,2.17,2.64
18.667232036590576,-0.26,-2.42,2.82,3.72
18.677101135253906,-0.38,-3.38,3.44,4.83
18.688110828399658,-0.45,-4.37,3.71,5.75
18.69789409637451,-0.4,-5.28,3.64,6.42
18.727449893951416,-0.22,-5.85,3.19,6.66
18.728856086730957,-0.16,-6.09,2.43,6.55
18.729795932769775,-0.22,-6.27,1.51,6.45
18.746400833129883,-0.15,-6.42,0.77,6.46
18.747366905212402,0.11,-6.76,0.51,6.78
18.758787155151367,0.39,-7.36,0.63,7.39
18.767956972122192,0.54,-7.85,0.88,7.91
18.777862071990967,0.6,-8.08,1.2,8.19
18.788990020751953,0.47,-8.29,1.55,8.44
18.798492908477783,0.27,-8.48,1.94,8.7
18.828651905059814,0.07,-8.56,2.18,8.83
18.829992055892944,-0.18,-8.56,2.21,8.84
18.83083486557007,-0.33,-8.5,1.95,8.72
18.846631050109863,-0.38,-8.43,1.5,8.57
18.84822702407837,-0.4,-8.42,1.05,8.49
18.859580039978027,-0.31,-8.46,0.69,8.49
18.868590831756592,-0.1,-8.52,0.43,8.53
18.87858009338379,0.17,-8.56,0.28,8.56
18.889779090881348,0.42,-8.61,0.15,8.62
18.899033069610596,0.63,-8.67,0.08,8.69
18.928494930267334,0.76,-8.53,-0.13,8.56
18.92988109588623,0.73,-8.29,-0.48,8.33
18.930799961090088,0.55,-7.88,-0.82,7.94
18.946824073791504,0.22,-7.36,-1.12,7.44
18.948946952819824,-0.05,-6.8,-1.3,6.92
18.959328174591064,-0.14,-6.47,-1.14,6.57
18.96934199333191,-0.23,-6.36,-0.67,6.39
18.979307174682617,-0.36,-6.37,-0.3,6.38
18.99020004272461,-0.5,-6.15,0.03,6.17
18.999587059020996,-0.51,-5.6,0.4,5.63
19.029297828674316,-0.7,-5.0,0.62,5.08
19.030686855316162,-1.08,-4.26,1.03,4.51
19.031589031219482,-1.35,-3.42,1.55,3.99
19.046789169311523,-1.44,-2.61,1.74,3.45
19.049686908721924,-1.23,-1.72,1.56,2.62
19.059773921966553,-0.82,-0.91,1.49,1.92
19.06995391845703,-0.45,-0.03,1.77,1.82
19.080024003982544,-0.53,1.23,2.03,2.43
19.090868949890137,-0.83,2.6,2.24,3.53
19.10032296180725,-0.81,3.72,2.17,4.38
19.129848957061768,-0.64,4.39,1.95,4.84
19.13122296333313,-0.43,5.03,1.69,5.32
19.132137060165405,-0.23,6.15,1.58,6.35
19.14601993560791,-0.08,7.61,2.08,7.88
19.150577068328857,0.18,8.43,2.64,8.83
19.160554885864258,0.34,8.65,2.69,9.06
19.170716047286987,0.43,9.01,2.63,9.39
19.180729866027832,0.39,9.67,2.75,10.06
19.19170594215393,0.12,10.4,2.89,10.79
19.201248168945312,-0.35,11.15,2.95,11.53
19.231719970703125,-1.05,11.72,3.17,12.18
19.23307991027832,-1.78,12.01,3.6,12.66
19.233958959579468,-2.19,11.88,3.76,12.65
19.24222707748413,-2.23,11.25,3.5,11.99
19.251885890960693,-2.09,10.48,3.22,11.16
19.261441946029663,-1.92,9.72,3.08,10.37
19.271399974822998,-1.9,8.98,2.92,9.63
19.281461000442505,-1.68,8.29,2.63,8.85
19.291527032852173,-1.13,7.36,2.39,7.82
19.3024001121521,-0.39,6.31,2.36,6.74
19.32918691635132,0.44,5.41,2.39,5.93
19.330545902252197,1.08,4.64,2.24,5.26
19.331439971923828,1.33,4.12,1.92,4.73
19.344451904296875,1.29,3.77,1.36,4.21
19.35172700881958,1.18,3.27,1.08,3.64
19.362035036087036,0.96,2.42,1.77,3.14
19.37210202217102,0.23,1.3,3.83,4.05
19.382200956344604,-0.45,-0.14,6.32,6.33
19.392351150512695,-0.73,-1.77,7.73,7.96
19.402759075164795,-0.69,-3.37,7.77,8.49
19.43011498451233,-0.31,-4.76,6.8,8.3
19.431529998779297,0.14,-5.77,5.11,7.7
19.432448863983154,0.35,-6.38,3.34,7.2
19.44459104537964,0.3,-6.77,1.81,7.01
19.45255398750305,0.16,-7.01,0.67,7.04
19.462738037109375,0.07,-7.3,-0.05,7.3
19.47274112701416,-0.18,-7.54,-0.39,7.55
19.48289394378662,-0.7,-7.61,-0.19,7.64
19.493868827819824,-1.2,-7.56,0.68,7.68
19.503376960754395,-1.73,-7.71,1.78,8.09
19.532227993011475,-2.09,-7.99,2.4,8.6
19.533624172210693,-2.17,-8.29,2.59,8.95
19.534571170806885,-2.08,-8.64,2.53,9.23
19.54304313659668,-1.97,-9.02,2.18,9.48
19.553093910217285,-1.83,-9.28,1.63,9.59
19.563528060913086,-1.67,-9.42,1.17,9.63
19.573566913604736,-1.52,-9.53,0.74,9.67
19.583816051483154,-1.48,-9.52,0.33,9.64
19.594364166259766,-1.37,-9.47,0.14,9.56
19.604156017303467,-1.15,-9.55,0.18,9.62
19.631225109100342,-0.97,-9.77,0.38,9.82
19.632638931274414,-0.8,-9.94,0.7,9.99
19.633575916290283,-0.58,-9.96,0.84,10.01
19.643753051757812,-0.49,-9.73,0.6,9.76
19.653851985931396,-0.59,-9.31,0.08,9.32
19.664065837860107,-0.77,-8.95,-0.33,8.98
19.67422103881836,-0.97,-8.73,-0.52,8.79
19.684296131134033,-1.11,-8.49,-0.5,8.57
19.695068836212158,-1.26,-8.15,-0.3,8.25
19.70514488220215,-1.3,-7.63,-0.12,7.74
19.734199047088623,-1.32,-7.05,0.1,7.17
19.735622882843018,-1.31,-6.56,0.34,6.69
19.73647689819336,-1.1,-6.1,0.59,6.22
19.744593143463135,-0.84,-5.74,0.68,5.84
19.756482124328613,-0.54,-5.29,0.7,5.36
19.76515007019043,-0.18,-4.6,0.72,4.65
19.77483296394348,0.28,-3.65,0.79,3.74
19.784940004348755,0.75,-2.52,0.88,2.77
19.795696020126343,1.03,-1.18,0.9,1.8
19.805942058563232,0.9,-0.03,0.89,1.26
19.835737943649292,0.77,1.13,1.06,1.73
19.836819171905518,0.86,2.03,1.65,2.75
19.83759117126465,0.9,2.36,2.8,3.77
19.84511089324951,1.2,3.44,4.19,5.55
19.855340003967285,1.38,5.25,5.06,7.42
19.86545991897583,1.12,6.77,5.2,8.6
19.87565803527832,1.01,7.9,4.94,9.37
19.885691165924072,1.27,8.65,4.73,9.94
19.896404027938843,1.56,9.17,4.73,10.43
19.90677309036255,1.77,9.66,4.66,10.87
19.936251163482666,1.93,10.42,4.41,11.47
19.93739891052246,1.67,11.0,4.05,11.84
19.938232898712158,1.06,11.34,3.73,11.98
19.958949089050293,0.4,11.6,3.49,12.12
19.959825038909912,-0.3,11.6,3.01,11.98
19.973026037216187,-1.04,11.47,2.46,11.77
19.976464986801147,-1.89,11.18,2.2,11.55
19.98783302307129,-2.87,10.67,2.16,11.25
19.996910095214844,-3.57,9.88,2.27,10.74
20.00639796257019,-3.66,8.92,2.25,9.9
20.03366494178772,-3.28,7.84,1.94,8.71
20.034803867340088,-2.55,6.68,1.64,7.33
20.03555202484131,-1.7,5.59,1.45,6.02
20.043874979019165,-1.16,4.64,1.43,4.99
20.05604100227356,-0.76,3.79,1.59,4.17
20.06429100036621,-0.46,2.92,1.72,3.42
20.074360847473145,-0.43,2.1,1.72,2.74
20.0844669342041,-0.68,1.41,2.04,2.57
20.094586849212646,-1.09,0.66,2.97,3.23
20.105935096740723,-1.42,0.04,3.82,4.07
20.13504409790039,-1.54,-0.4,4.28,4.56
20.13609004020691,-1.55,-1.09,4.58,4.95
20.136757850646973,-1.36,-1.9,4.73,5.27
20.14482593536377,-1.04,-2.86,4.65,5.55
20.155030012130737,-0.7,-3.81,4.26,5.75
20.165223121643066,-0.38,-4.64,3.53,5.84
20.17539691925049,-0.1,-5.22,2.44,5.76
20.185265064239502,-0.01,-5.68,1.39,5.84
20.195906162261963,0.08,-5.87,0.58,5.89
20.20592999458313,0.17,-5.87,-0.14,5.87
20.23678994178772,0.12,-5.96,-0.5,5.98
20.2378830909729,-0.12,-6.21,-0.2,6.21
20.23864984512329,-0.21,-6.54,0.58,6.56
20.256160974502563,-0.33,-6.94,1.37,7.08
20.257380962371826,-0.46,-7.32,1.8,7.55
20.270248889923096,-0.59,-7.58,1.99,7.85
20.27572011947632,-0.66,-7.82,2.1,8.12
20.286059856414795,-0.77,-8.0,1.99,8.27
20.29664397239685,-0.85,-8.05,1.65,8.26
20.306325912475586,-0.76,-8.01,1.19,8.13
20.3349449634552,-0.66,-8.24,0.81,8.3
20.336287021636963,-0.56,-8.47,0.46,8.5
20.337120056152344,-0.36,-8.62,0.15,8.62
20.346002101898193,-0.19,-8.9,0.09,8.9
20.35626196861267,-0.22,-9.19,0.23,9.19
20.36650514602661,-0.28,-9.45,0.38,9.46
20.376548051834106,-0.29,-9.53,0.37,9.54
20.386881828308105,-0.2,-9.55,0.23,9.55
20.397228956222534,-0.22,-9.58,0.06,9.58
20.407263040542603,-0.36,-9.54,-0.27,9.55
20.437690019607544,-0.45,-9.41,-0.66,9.44
20.438760995864868,-0.49,-9.22,-0.9,9.27
20.439538955688477,-0.54,-9.07,-0.86,9.12
20.458600997924805,-0.6,-8.93,-0.66,8.97
20.460227966308594,-0.64,-8.76,-0.43,8.79
20.471117973327637,-0.72,-8.43,-0.25,8.46
20.477108001708984,-0.88,-7.81,0.06,7.85
20.487409114837646,-1.07,-7.28,0.71,7.39
20.497260093688965,-1.27,-6.87,1.78,7.2
20.508358001708984,-1.36,-6.49,2.76,7.18
20.536302089691162,-1.19,-5.83,3.15,6.73
20.537455081939697,-0.84,-4.81,2.65,5.55
20.538267135620117,-0.51,-3.75,1.7,4.14
20.557490825653076,-0.07,-2.71,0.94,2.86
20.558796882629395,0.5,-1.32,0.33,1.44
20.572208881378174,0.92,0.45,-0.14,1.03
20.57786202430725,0.9,2.17,-0.11,2.35
20.588742971420288,0.31,3.71,0.59,3.76
20.59878897666931,-0.6,5.25,1.77,5.57
20.60862398147583,-1.07,6.81,2.85,7.45
20.638320922851562,-1.11,8.2,3.31,8.91
20.639668941497803,-1.02,9.39,3.51,10.07
20.640539169311523,-0.91,10.45,4.0,11.22
20.654557943344116,-0.91,11.51,4.26,12.3
20.658715963363647,-1.07,12.71,3.95,13.35
20.67175817489624,-1.42,13.76,3.7,14.31
20.678996086120605,-1.82,14.34,4.11,15.02
20.68904685974121,-2.19,14.28,5.05,15.3
20.69969892501831,-2.54,13.85,6.17,15.37
20.709618091583252,-3.04,13.33,6.92,15.32
20.741024017333984,-3.47,12.83,6.94,14.99
20.742414951324463,-3.55,12.17,6.39,14.19
20.743278980255127,-3.31,11.0,5.6,12.77
20.76509189605713,-2.04,8.2,3.28,9.06
20.766008853912354,-2.08,8.08,3.5,9.04
20.769296169281006,-1.3,6.77,2.58,7.36
20.787283897399902,-0.68,5.48,1.89,5.83
20.789440155029297,-0.09,4.41,1.42,4.63
20.80408501625061,0.5,3.42,0.91,3.57
20.809967041015625,0.97,2.47,0.53,2.7
20.820330142974854,0.86,1.88,0.75,2.19
20.830042839050293,0.24,1.38,1.68,2.18
20.840426921844482,-0.29,0.78,2.55,2.68
20.880040168762207,-0.59,0.06,2.88,2.94
20.881441116333008,-0.71,-0.92,3.06,3.27
20.882305145263672,-0.65,-1.85,3.17,3.72
20.885295867919922,-0.45,-2.61,2.95,3.96
20.90351700782776,-0.29,-3.27,2.48,4.11
20.904741048812866,-0.13,-3.96,1.98,4.42
20.920259952545166,0.06,-4.65,1.45,4.87
20.921473026275635,0.15,-5.25,0.81,5.31
20.935460090637207,0.04,-5.62,0.22,5.62
20.940775871276855,-0.08,-5.93,-0.27,5.93
20.977965831756592,-0.09,-6.35,-0.55,6.37
20.979007959365845,-0.09,-6.89,-0.58,6.91
20.979735851287842,-0.12,-7.46,-0.44,7.47
20.98444414138794,-0.21,-8.01,-0.23,8.01
20.990882873535156,-0.28,-8.48,0.0,8.48
21.00248694419861,-0.29,-8.95,0.26,8.95
21.011066913604736,-0.21,-9.5,0.54,9.51
21.021081924438477,-0.06,-10.03,0.79,10.06
21.031227111816406,0.09,-10.45,0.87,10.48
21.042369842529297,0.19,-10.73,0.79,10.76
21.06919503211975,0.18,-11.01,0.69,11.03
21.070651054382324,0.01,-11.16,0.53,11.17
21.071542978286743,-0.22,-10.97,0.23,10.97
21.08874797821045,-0.22,-10.72,-0.13,10.72
21.091381072998047,-0.07,-10.72,-0.38,10.72
21.102850914001465,0.24,-10.83,-0.39,10.83
21.111785888671875,0.51,-10.87,-0.26,10.88
21.121731996536255,0.63,-10.82,-0.22,10.84
21.132730960845947,0.63,-10.63,-0.29,10.65
21.142332077026367,0.56,-10.3,-0.33,10.32
21.170215129852295,0.39,-9.87,-0.2,9.87
21.171653985977173,0.23,-9.42,-0.31,9.42
21.172555923461914,-0.03,-8.83,-0.78,8.86
21.188982009887695,-0.4,-8.06,-1.54,8.21
21.192137956619263,-0.81,-7.03,-1.95,7.34
21.202313899993896,-1.03,-5.68,-1.41,5.94
21.212407112121582,-1.27,-4.38,-0.25,4.56
21.222890853881836,-1.48,-3.4,0.87,3.8
21.23353600502014,-1.76,-2.66,1.61,3.57
21.24293303489685,-2.02,-2.01,2.12,3.55
21.2725248336792,-2.22,-1.17,2.65,3.64
21.27389907836914,-2.28,0.38,3.58,4.26
21.274685859680176,-2.16,2.35,4.08,5.18
21.288300037384033,-1.57,4.22,4.17,6.13
21.292768955230713,-1.26,6.04,4.97,7.92
21.302971839904785,-0.89,7.55,5.64,9.46
21.31337308883667,-0.6,8.96,6.17,10.89
21.323287963867188,-0.25,10.38,6.22,12.1
21.33443307876587,0.15,11.61,5.75,12.95
21.367013931274414,0.49,12.62,5.11,13.62
21.368197917938232,0.83,13.18,4.76,14.03
21.3690128326416,1.1,13.1,4.84,14.0
21.387568950653076,0.93,12.84,5.18,13.87
21.388468980789185,0.24,12.65,5.42,13.76
21.402003049850464,-0.84,12.58,5.4,13.71
21.404019832611084,-1.92,12.46,5.18,13.62
21.417081832885742,-2.64,11.87,4.86,13.09
21.424692153930664,-3.14,11.18,4.7,12.52
21.43427610397339,-3.39,10.28,4.48,11.71
21.467554092407227,-3.16,8.87,4.37,10.38
21.468955039978027,-2.47,7.22,3.91,8.57
21.469846963882446,-1.57,5.73,3.29,6.79
21.48793888092041,-0.81,4.33,2.98,5.31
21.48884391784668,-0.28,2.79,2.84,3.99
21.5015230178833,0.12,1.6,2.74,3.17
21.504467964172363,0.48,0.59,2.35,2.47
21.516567945480347,0.91,-0.22,1.75,1.98
21.525344848632812,1.25,-0.75,1.02,1.77
21.535160064697266,1.36,-1.28,0.42,1.91
21.570364952087402,1.29,-1.76,0.01,2.18
21.571779012680054,1.1,-2.02,-1.14,2.56
21.580772876739502,0.0,-2.69,1.66,3.16
21.583744049072266,-0.04,-2.73,1.84,3.29
21.58466911315918,-1.07,-3.61,2.91,4.75
21.601546049118042,-1.91,-4.36,3.86,6.12
21.605286121368408,-2.26,-5.17,3.94,6.88
21.61736488342285,-2.35,-5.99,2.91,7.06
21.625303030014038,-1.88,-6.63,1.84,7.13
21.635735988616943,-1.23,-7.3,0.91,7.45
21.663920879364014,-0.57,-7.99,-0.11,8.01
21.665287971496582,-0.03,-8.23,-0.28,8.23
21.66610813140869,-0.03,-8.42,0.05,8.42
21.68993091583252,-0.1,-8.98,0.47,8.99
21.6912100315094,-0.23,-9.56,1.24,9.64
21.69947385787964,-0.38,-10.29,1.6,10.42
21.706050872802734,-0.26,-10.65,1.45,10.75
21.716815948486328,-0.16,-10.6,0.8,10.63
21.72703194618225,-0.15,-10.36,0.04,10.36
21.736531019210815,-0.19,-10.16,-0.16,10.16
21.765367031097412,-0.36,-9.97,0.01,9.97
21.766758918762207,-0.78,-9.86,0.2,9.89
21.76761484146118,-1.01,-9.86,0.14,9.91
21.793048858642578,-0.92,-9.82,-0.14,9.86
21.79433584213257,-0.55,-9.69,-0.53,9.72
21.801764965057373,-0.17,-9.58,-0.84,9.61
21.806621074676514,0.16,-9.5,-1.05,9.55
21.818650007247925,0.37,-9.39,-1.27,9.48
21.826804161071777,0.32,-9.29,-1.47,9.41
21.837249040603638,0.24,-9.08,-1.9,9.27
21.866605043411255,0.34,-8.65,-2.52,9.01
21.8679780960083,0.69,-7.99,-3.24,8.64
21.868884086608887,1.04,-7.42,-3.61,8.31
21.88575005531311,0.81,-6.94,-3.45,7.79
21.886991024017334,0.38,-6.06,-3.24,6.88
21.90061092376709,0.03,-4.83,-2.99,5.68
21.90731191635132,-0.35,-3.05,-2.66,4.06
21.917579174041748,-0.46,-0.83,-2.29,2.47
21.92744493484497,-0.45,1.39,-1.73,2.26
21.938150882720947,-1.1,2.97,-2.26,3.89
21.965519905090332,-1.71,4.09,-2.06,4.88
21.966948986053467,-1.87,5.18,-1.81,5.79
21.96783685684204,-1.7,5.95,-0.02,6.18
21.986574172973633,-1.62,5.89,3.18,6.88
21.987493991851807,-1.53,5.86,5.93,8.47
22.001240015029907,-1.27,6.49,7.5,9.99
22.008103847503662,-0.85,7.23,7.91,10.75
22.018453121185303,-0.52,8.06,7.55,11.05
22.02933406829834,-0.02,8.92,6.93,11.29
22.038340091705322,0.58,9.67,6.43,11.62
22.06824803352356,0.85,9.96,6.15,11.73
22.06966209411621,0.87,9.86,6.13,11.64
22.070533990859985,0.76,9.55,6.44,11.54
22.086923122406006,0.41,9.04,7.23,11.58
22.088404178619385,-0.09,8.55,7.9,11.64
22.09944796562195,-0.54,8.18,7.87,11.36
22.108684062957764,-1.06,7.99,7.37,10.92
22.118800163269043,-1.35,7.73,6.79,10.37
22.12881898880005,-1.27,7.11,6.04,9.41
22.13958215713501,-0.77,6.29,5.04,8.09
22.168701171875,-0.12,5.29,3.95,6.6
22.17008399963379,0.31,4.26,2.92,5.17
22.17095708847046,0.37,3.47,2.25,4.15
22.186705112457275,0.13,2.83,2.04,3.49
22.18906307220459,-0.02,2.17,2.02,2.96
22.19938087463379,0.14,1.66,2.1,2.68
22.20941686630249,0.23,0.88,2.22,2.39
22.21951699256897,0.19,-0.22,2.39,2.4
22.230409145355225,0.29,-0.97,2.43,2.63
22.239639043807983,0.34,-1.55,2.34,2.82
22.27043390274048,0.29,-2.1,2.07,2.96
22.271811962127686,0.16,-2.8,1.43,3.14
22.27270793914795,-0.03,-3.47,0.7,3.54
22.286489963531494,-0.18,-3.97,0.1,3.97
22.289852142333984,-0.33,-4.46,-0.4,4.49
22.299898147583008,-0.41,-5.0,-0.58,5.05
22.31008291244507,-0.45,-5.48,-0.51,5.52
22.32017707824707,-0.59,-5.91,-0.34,5.94
22.330953121185303,-0.74,-6.31,-0.2,6.35
22.340438842773438,-0.93,-6.66,-0.08,6.72
22.370319843292236,-1.12,-6.97,0.23,7.06
22.371701955795288,-1.27,-7.27,0.78,7.42
22.37259602546692,-1.42,-7.52,1.32,7.76
22.385779857635498,-1.66,-7.73,1.66,8.07
22.39055109024048,-1.78,-7.68,1.78,8.08
22.400569915771484,-1.7,-7.74,1.78,8.12
22.410887002944946,-1.52,-8.07,1.6,8.36
22.421110153198242,-1.26,-8.52,1.26,8.7
22.431099891662598,-0.99,-8.83,0.9,8.93
22.44178009033203,-0.78,-9.14,0.66,9.19
22.470510005950928,-0.61,-9.59,0.34,9.61
22.47187304496765,-0.45,-9.91,-0.06,9.92
22.472763061523438,-0.21,-9.97,-0.52,9.98
22.48503017425537,0.0,-9.87,-1.03,9.92
22.491232872009277,0.07,-9.82,-1.51,9.93
22.50141406059265,0.01,-9.74,-1.85,9.91
22.51158595085144,-0.05,-9.54,-1.86,9.71
22.52144193649292,-0.05,-9.24,-1.62,9.38
22.53251004219055,-0.02,-8.82,-1.3,8.91
22.54172992706299,-0.15,-8.37,-0.9,8.41
22.570859909057617,-0.25,-7.79,-0.38,7.8
22.572280883789062,-0.17,-7.2,-0.27,7.2
22.573169946670532,-0.16,-6.45,-0.47,6.46
22.58301591873169,-0.14,-5.29,-0.24,5.29
22.59207797050476,-0.01,-3.85,0.6,3.89
22.60219383239746,0.21,-2.52,1.67,3.03
22.612205982208252,0.13,-1.32,2.4,2.74
22.622288942337036,0.03,0.49,3.16,3.19
22.632461071014404,-0.26,2.22,3.63,4.26
22.643220901489258,-0.37,3.3,3.81,5.05
22.67199993133545,-0.05,4.03,4.35,5.93
22.673346996307373,0.38,4.71,4.75,6.7
22.67423701286316,0.76,4.98,4.31,6.62
22.68274688720703,1.29,5.54,3.79,6.83
22.692633152008057,1.73,6.71,3.45,7.74
22.702887058258057,1.88,7.87,2.71,8.53
22.713021993637085,2.01,8.87,1.76,9.26
22.723002910614014,2.09,9.91,1.19,10.19
22.73390293121338,1.74,11.1,0.92,11.27
22.744282007217407,1.43,11.98,0.46,12.07
22.771297931671143,0.77,12.41,0.38,12.43
22.772706031799316,0.02,12.52,0.4,12.52
22.77364683151245,-0.5,12.2,0.17,12.21
22.78402614593506,-0.92,11.66,0.11,11.69
22.793998956680298,-1.54,11.15,0.5,11.26
22.804344177246094,-2.13,10.59,1.31,10.88
22.814614057540894,-2.56,9.79,2.3,10.37
22.824023008346558,-2.96,8.87,3.33,9.92
22.833835124969482,-3.27,8.04,4.3,9.68
22.844607830047607,-3.42,7.17,4.97,9.37
22.87381410598755,-3.16,6.06,4.92,8.42
22.875213146209717,-2.53,4.86,4.43,7.04
22.87607192993164,-1.79,3.61,3.9,5.6
22.883913040161133,-1.07,2.37,3.38,4.26
22.89678192138672,-0.35,1.02,2.69,2.89
22.90425705909729,0.3,-0.34,1.9,1.95
22.914263010025024,0.8,-1.53,1.27,2.14
22.924391984939575,1.02,-2.44,1.08,2.85
22.93514585494995,0.77,-3.22,1.26,3.54
22.94513511657715,0.45,-3.93,1.6,4.26
22.974730968475342,0.2,-4.53,1.77,4.86
22.97584295272827,0.0,-5.06,1.77,5.36
22.976552963256836,0.02,-5.49,1.65,5.73
22.984671115875244,0.15,-5.89,1.52,6.08
22.995008945465088,0.28,-6.41,1.51,6.59
23.005000114440918,0.27,-6.94,1.53,7.11
23.015014171600342,0.18,-7.32,1.57,7.48
23.0255708694458,0.0,-7.58,1.57,7.74
23.035308837890625,-0.19,-7.95,1.63,8.11
23.046058177947998,-0.15,-8.18,1.62,8.34
23.073933124542236,-0.15,-8.41,1.2,8.49
23.075096130371094,-0.36,-8.76,0.55,8.78
23.075896978378296,-0.56,-8.9,-0.01,8.91
23.085389137268066,-0.59,-8.78,-0.27,8.8
23.096160888671875,-0.53,-8.73,-0.3,8.75
23.10558295249939,-0.45,-8.92,-0.13,8.93
23.115800857543945,-0.34,-9.12,0.02,9.12
23.125972032546997,-0.24,-9.31,0.21,9.31
23.136642932891846,-0.12,-9.58,0.46,9.59
23.146692991256714,0.09,-9.8,0.55,9.81
23.177979946136475,0.31,-9.81,0.34,9.82
23.179121017456055,0.44,-9.72,-0.04,9.73
23.179934978485107,0.53,-9.59,-0.49,9.61
23.199012994766235,0.5,-9.4,-1.0,9.46
23.1998929977417,0.4,-9.05,-1.54,9.18
23.21360206604004,0.42,-8.54,-2.08,8.79
23.216434001922607,0.4,-8.1,-2.44,8.46
23.227813959121704,0.19,-7.91,-2.35,8.25
23.237303972244263,-0.06,-7.75,-1.55,7.9
23.24699592590332,-0.41,-7.66,-0.38,7.68
23.27585005760193,-1.03,-7.38,0.86,7.5
23.27726411819458,-1.61,-6.53,2.14,7.05
23.278156995773315,-2.5,-5.46,3.28,6.84
23.298840045928955,-3.59,-4.44,3.77,6.84
23.29996395111084,-4.15,-3.27,3.29,6.22
23.31319284439087,-3.49,-2.04,2.48,4.74
23.3171968460083,-2.01,-0.85,2.0,2.96
23.32755708694458,-0.74,-0.13,1.8,1.95
23.337367057800293,0.12,0.43,1.65,1.7
23.347738027572632,0.58,1.79,1.56,2.44
23.37857484817505,0.55,3.48,1.71,3.91
23.379939079284668,0.41,5.11,1.96,5.48
23.380836963653564,0.46,6.7,2.27,7.08
23.398415088653564,0.85,8.06,2.47,8.47
23.399320125579834,1.26,8.77,2.62,9.23
23.4127459526062,1.46,9.14,2.96,9.71
23.417852878570557,1.62,9.58,3.67,10.38
23.428298950195312,1.56,10.17,4.41,11.19
23.438787937164307,1.36,10.84,4.55,11.83
23.449181079864502,1.25,11.47,3.98,12.2
23.476083040237427,1.13,12.02,3.25,12.5
23.477401971817017,0.89,12.29,2.53,12.57
23.478381156921387,0.32,12.28,1.86,12.42
23.4961199760437,-0.82,11.97,2.15,12.18
23.498435974121094,-2.11,11.38,3.36,12.05
23.511268138885498,-2.98,10.6,4.66,11.95
23.519073963165283,-3.3,9.53,5.52,11.49
23.528554916381836,-3.03,8.53,5.6,10.64
23.5387179851532,-2.34,7.49,4.91,9.25
23.549535036087036,-1.58,6.5,3.78,7.68
23.578123092651367,-1.14,5.71,2.64,6.39
23.579712867736816,-0.67,4.94,1.65,5.25
23.580631971359253,-0.42,3.94,1.01,4.08
23.597684860229492,-0.27,2.88,0.97,3.05
23.59918212890625,-0.22,1.76,1.7,2.45
23.612276077270508,-0.51,0.39,3.16,3.22
23.61925196647644,-0.64,-1.12,4.08,4.27
23.629250049591064,-0.51,-2.22,3.7,4.34
23.63947105407715,-0.35,-3.01,2.57,3.97
23.650290966033936,-0.18,-3.63,1.42,3.9
23.680070877075195,-0.08,-4.04,0.36,4.05
23.68142795562744,0.09,-4.25,-0.57,4.28
23.682379007339478,0.27,-4.54,-1.09,4.67
23.69755506515503,0.32,-4.84,-0.93,4.93
23.699883937835693,0.17,-5.21,-0.17,5.21
23.712404012680054,-0.23,-5.47,0.93,5.55
23.720065116882324,-0.63,-5.71,2.15,6.13
23.730289936065674,-0.69,-6.21,3.05,6.95
23.740164041519165,-0.38,-6.81,3.41,7.62
23.750853061676025,-0.08,-7.29,3.35,8.02
23.780333995819092,-0.32,-7.59,2.72,8.06
23.78170895576477,-0.91,-7.06,1.41,7.25
23.782596111297607,-1.26,-5.79,0.2,5.92
23.79755401611328,-0.91,-5.82,0.19,5.89
23.8004310131073,-0.84,-7.28,0.21,7.33
23.810494899749756,-0.74,-7.93,1.17,8.04
23.820723056793213,-0.41,-8.43,1.69,8.6
23.831014156341553,-0.35,-8.87,1.68,9.03
23.840841054916382,-0.42,-8.89,1.74,9.06
23.851552963256836,-0.69,-8.84,1.56,9.0
23.88007116317749,-0.87,-8.78,0.95,8.87
23.881502151489258,-0.89,-8.69,-0.1,8.73
23.882421016693115,-0.8,-8.58,-0.92,8.66
23.896965980529785,-0.6,-8.61,-1.1,8.7
23.901134967803955,-0.28,-8.9,-0.75,8.93
23.911158084869385,0.06,-9.33,-0.22,9.33
23.921470165252686,0.29,-9.71,0.24,9.71
23.93167495727539,0.26,-9.85,0.38,9.86
23.94241499900818,0.02,-9.69,0.35,9.69
23.95165705680847,-0.34,-9.44,0.22,9.44
23.983027935028076,-0.49,-8.87,-0.23,8.88
23.98436999320984,-0.53,-8.06,-1.23,8.17
23.98526096343994,-0.5,-7.4,-2.31,7.76
23.99575185775757,-0.23,-7.08,-2.5,7.51
24.00178289413452,0.22,-7.04,-1.65,7.23
24.011898040771484,0.34,-7.07,-0.55,7.09
24.02216386795044,-0.08,-6.77,0.71,6.8
24.032312870025635,-0.66,-6.19,2.19,6.59
24.042234897613525,-1.11,-5.09,3.25,6.14
24.052800178527832,-1.61,-3.79,3.41,5.34
24.08304786682129,-2.0,-1.91,3.16,4.19
24.084404945373535,-2.14,0.79,2.78,3.59
24.085279941558838,-1.75,3.34,2.12,4.32
24.09323215484619,-1.25,4.93,1.36,5.26
24.102545976638794,-1.06,6.14,1.35,6.37
24.112722873687744,-1.01,7.49,2.01,7.82
24.12271213531494,-0.87,8.86,2.38,9.21
24.132843017578125,-0.47,9.92,2.49,10.23
24.143703937530518,-0.08,10.95,2.83,11.31
24.153841972351074,-0.28,11.96,3.53,12.47
24.179775953292847,-1.07,13.27,4.42,14.02
24.181195974349976,-1.65,14.21,4.9,15.12
24.183133125305176,-2.02,14.63,4.79,15.52
24.193915843963623,-2.12,14.93,4.64,15.77
24.20375394821167,-2.07,14.51,4.84,15.43
24.214071035385132,-2.11,13.28,5.18,14.4
24.2239351272583,-2.57,12.09,5.65,13.59
24.234338998794556,-3.4,11.15,6.08,13.14
24.244549036026,-4.1,10.21,5.98,12.52
24.253981113433838,-4.08,9.2,5.24,11.34
24.28019404411316,-3.36,7.74,4.07,9.36
24.281550884246826,-2.39,6.16,2.94,7.23
24.28366184234619,-1.45,4.74,2.01,5.34
24.2954158782959,-0.66,3.4,1.36,3.72
24.303872108459473,-0.13,2.25,1.01,2.46
24.314005851745605,0.22,1.25,0.75,1.47
24.324470043182373,0.28,0.31,0.8,0.9
24.33432388305664,0.15,-0.42,1.02,1.11
24.345054149627686,-0.15,-1.0,1.26,1.61
24.355533123016357,-0.35,-1.45,1.63,2.2
24.38278603553772,-0.35,-1.95,2.08,2.87
24.3842191696167,-0.27,-2.52,2.32,3.43
24.385140895843506,-0.12,-3.16,2.29,3.9
24.394400119781494,0.08,-4.03,2.02,4.5
24.404881954193115,0.29,-4.49,1.79,4.84
24.414803981781006,0.26,-4.76,1.37,4.96
24.42526912689209,0.19,-5.01,1.06,5.12
24.434926986694336,0.22,-5.38,1.0,5.47
24.44506001472473,0.18,-5.88,1.04,5.97
24.456238985061646,0.04,-6.32,1.09,6.41
24.48420810699463,-0.08,-6.57,1.02,6.64
24.48561716079712,-0.33,-7.13,1.03,7.21
24.48652195930481,-0.58,-7.51,1.27,7.63
24.495193004608154,-0.54,-7.48,1.22,7.59
24.505247116088867,-0.42,-7.54,0.89,7.6
24.515480995178223,-0.47,-7.95,0.63,7.98
24.525827884674072,-0.61,-8.12,0.39,8.15
24.535634994506836,-0.65,-8.04,0.4,8.07
24.545720100402832,-0.71,-7.97,0.1,8.0
24.55671215057373,-0.89,-8.22,-0.02,8.26
24.586555004119873,-0.92,-8.42,-0.13,8.47
24.587949991226196,-0.79,-8.61,-0.24,8.64
24.58880305290222,-0.55,-8.98,-0.11,8.99
24.595829010009766,-0.29,-9.35,0.0,9.35
24.6060049533844,-0.04,-9.52,-0.04,9.52
24.616044998168945,0.15,-9.59,-0.35,9.59
24.626585006713867,0.26,-9.67,-0.71,9.69
24.636269092559814,0.33,-9.65,-0.99,9.7
24.646569967269897,0.28,-9.4,-1.26,9.48
24.65714406967163,0.28,-9.29,-1.18,9.36
24.686019897460938,0.12,-9.36,-1.08,9.42
24.687186002731323,-0.34,-9.24,-0.91,9.29
24.687865018844604,-0.88,-8.85,-0.7,8.92
24.69655704498291,-1.39,-8.38,-0.48,8.5
24.706768035888672,-1.83,-7.98,0.33,8.19
24.71694803237915,-2.01,-7.68,2.16,8.22
24.727314949035645,-1.96,-7.24,4.35,8.67
24.737074851989746,-1.54,-6.3,5.58,8.55
24.74783992767334,-1.03,-4.76,4.81,6.84
24.758059978485107,-0.78,-2.69,2.68,3.87
24.786388874053955,-0.31,-0.66,0.85,1.11
24.78752613067627,0.31,1.38,-0.56,1.52
24.788295030593872,0.8,3.6,-1.7,4.06
24.797298908233643,1.01,5.67,-2.08,6.12
24.807547092437744,0.8,7.58,-1.13,7.7
24.81760883331299,0.04,9.11,0.88,9.15
24.827720165252686,-0.68,10.36,3.17,10.85
24.83833408355713,-0.98,11.46,4.75,12.44
24.848422050476074,-0.9,12.32,5.29,13.43
24.859116077423096,-0.54,13.19,4.96,14.1
24.885174036026,-0.25,14.08,4.49,14.78
24.88632583618164,-0.11,14.43,4.19,15.02
24.888307094573975,-0.08,14.35,4.22,14.95
24.898700952529907,-0.32,13.74,4.86,14.57
24.90907597541809,-0.9,12.79,5.75,14.05
24.918810844421387,-1.69,11.82,6.51,13.59
24.92888593673706,-2.65,10.8,7.01,13.14
24.939033031463623,-3.08,9.61,6.79,12.16
24.9485080242157,-2.78,8.34,5.62,10.43
24.958678007125854,-2.04,7.1,4.07,8.43
24.985090970993042,-1.24,5.77,2.59,6.44
24.986191034317017,-0.51,4.69,1.47,4.94
24.98878288269043,-0.15,3.85,0.58,3.89
24.998722076416016,-0.11,3.04,-0.02,3.04
25.008677005767822,-0.11,2.3,-0.36,2.33
25.01938009262085,-0.32,1.41,0.05,1.44
25.02908706665039,-0.5,0.28,1.17,1.3
25.03916597366333,-0.55,-0.67,2.03,2.2
25.04999017715454,-0.72,-1.35,2.54,2.96
25.05991506576538,-0.96,-1.85,3.02,3.66
25.08989715576172,-1.09,-2.64,3.25,4.32
25.091032028198242,-0.88,-3.61,2.99,4.76
25.091835975646973,-0.37,-4.56,2.26,5.1
25.11067008972168,0.12,-5.49,1.37,5.65
25.11157202720642,0.4,-6.23,0.56,6.26
25.123451948165894,0.5,-6.81,-0.12,6.82
25.12990403175354,0.52,-7.19,-0.61,7.23
25.139863967895508,0.51,-7.49,-0.56,7.52
25.15025305747986,0.4,-7.81,0.14,7.82
25.16082191467285,0.2,-7.97,0.96,8.03
25.188910961151123,-0.2,-7.93,1.81,8.13
25.19035005569458,-0.65,-7.74,2.74,8.23
25.191243171691895,-0.95,-7.69,3.4,8.46
25.210153102874756,-1.04,-7.98,3.4,8.73
25.210994958877563,-0.95,-8.22,2.85,8.75
25.22309112548828,-0.89,-8.17,2.06,8.47
25.230666160583496,-0.91,-8.15,1.18,8.28
25.240440845489502,-1.04,-8.27,0.36,8.34
25.25169801712036,-1.13,-8.33,-0.28,8.41
25.261271953582764,-1.2,-8.27,-0.74,8.38
25.291687965393066,-0.96,-8.27,-0.73,8.35
25.293025970458984,-0.59,-8.41,-0.51,8.44
25.29396104812622,-0.35,-8.68,-0.29,8.69
25.309237003326416,-0.1,-8.96,-0.22,8.96
25.31079602241516,0.35,-9.01,-0.23,9.01
25.323122024536133,0.73,-8.98,-0.27,9.01
25.331407070159912,0.78,-8.79,-0.35,8.83
25.341206073760986,0.55,-8.34,-0.57,8.37
25.351396083831787,0.18,-7.98,-0.98,8.04
25.361970901489258,-0.05,-7.69,-1.43,7.82
25.391234874725342,-0.13,-7.52,-1.63,7.69
25.392629146575928,-0.02,-7.44,-1.38,7.56
25.393543004989624,0.17,-7.39,-0.87,7.44
25.409981966018677,0.2,-7.2,-0.41,7.21
25.411620140075684,0.54,-6.93,0.12,6.95
25.42273998260498,0.9,-6.67,0.42,6.74
25.43191385269165,0.77,-6.02,0.01,6.06
25.44190788269043,0.49,-4.73,-0.92,4.84
25.45290184020996,-0.13,-2.96,-1.62,3.37
25.462424993515015,-1.21,-1.1,-1.86,2.47
25.493010997772217,-1.82,0.48,-1.28,2.27
25.4943950176239,-1.62,1.45,0.12,2.17
25.495269060134888,-1.36,2.31,1.84,3.25
25.509687900543213,-1.63,3.66,3.07,5.04
25.512332916259766,-1.89,5.46,3.63,6.82
25.52338409423828,-1.66,7.09,3.59,8.11
25.532644033432007,-1.08,8.26,3.23,8.93
25.54257106781006,-0.52,9.05,2.85,9.5
25.55352210998535,0.01,9.71,2.99,10.15
25.563627004623413,0.69,10.27,3.57,10.89
25.591096878051758,1.13,10.78,4.3,11.66
25.59256410598755,1.09,11.39,4.6,12.33
25.593487977981567,0.72,12.16,4.79,13.08
25.60793900489807,-0.05,12.62,5.49,13.76
25.613112926483154,-1.17,12.82,6.63,14.48
25.624166011810303,-2.17,12.74,7.65,15.01
25.634148120880127,-3.0,12.04,8.23,14.88
25.644155025482178,-3.54,11.21,8.38,14.43
25.654263019561768,-3.62,10.31,7.56,13.28
25.663477897644043,-3.12,9.27,6.07,11.51
25.69202709197998,-2.26,8.3,4.59,9.75
25.693506956100464,-1.43,7.35,3.12,8.11
25.694414138793945,-0.76,6.29,2.02,6.64
25.70882511138916,-0.18,5.1,1.68,5.37
25.71367311477661,0.19,3.8,1.83,4.22
25.723898887634277,0.17,2.54,2.12,3.31
25.73404598236084,0.15,1.52,2.4,2.84
25.74445104598999,0.1,0.57,2.42,2.48
25.754467964172363,0.08,-0.23,2.38,2.39
25.764888048171997,0.21,-0.83,2.21,2.37
25.79413604736328,0.26,-1.47,1.86,2.38
25.795527935028076,0.25,-2.04,1.57,2.58
25.796419143676758,0.21,-2.68,1.39,3.02
25.807148933410645,0.22,-3.38,1.36,3.64
25.81452703475952,0.15,-4.09,1.97,4.54
25.824656009674072,-0.07,-5.11,2.8,5.82
25.83476495742798,-0.12,-6.07,3.2,6.86
25.844848155975342,-0.05,-6.78,3.17,7.48
25.854969024658203,-0.17,-7.35,2.8,7.86
25.865543842315674,-0.27,-7.62,1.91,7.86
25.89398717880249,-0.18,-7.69,0.9,7.74
25.89536714553833,0.04,-7.82,0.2,7.82
25.89623785018921,0.26,-8.03,-0.11,8.03
25.90724205970764,0.42,-8.35,-0.03,8.36
25.915173053741455,0.49,-8.66,0.21,8.67
25.925355911254883,0.39,-8.95,0.56,8.97
25.935467004776,0.14,-9.12,0.98,9.17
25.945435047149658,-0.19,-9.23,1.2,9.3
25.95628595352173,-0.71,-9.14,1.01,9.22
25.965688943862915,-0.92,-8.89,0.62,8.95
25.9951229095459,-0.87,-8.81,0.33,8.85
25.996511936187744,-0.8,-8.96,0.24,8.99
25.997302055358887,-0.57,-9.17,0.29,9.19
26.005576133728027,-0.17,-9.29,0.32,9.29
26.0158748626709,0.28,-9.38,0.36,9.39
26.026031017303467,0.74,-9.43,0.51,9.47
26.036201000213623,1.06,-9.52,0.72,9.6
26.046107053756714,1.17,-9.51,0.91,9.62
26.056200981140137,1.17,-9.26,1.03,9.39
26.067357063293457,0.99,-8.71,1.02,8.82
26.094501972198486,0.61,-8.21,0.73,8.26
26.09589910507202,0.25,-7.84,0.37,7.85
26.096805095672607,-0.05,-7.52,0.29,7.52
26.106438159942627,-0.43,-7.2,0.73,7.24
26.116445064544678,-0.73,-6.86,1.34,7.02
26.126796007156372,-0.87,-6.46,1.75,6.74
26.136909008026123,-0.89,-6.06,1.88,6.4
26.146944046020508,-1.02,-5.74,1.67,6.06
26.157852172851562,-1.02,-5.2,1.42,5.48
26.167832851409912,-1.0,-4.38,1.21,4.65
26.198277950286865,-0.91,-3.42,0.97,3.66
26.19965100288391,-0.66,-2.48,0.8,2.68
26.200482845306396,-0.38,-1.42,0.87,1.7
26.207065105438232,-0.14,-0.06,1.12,1.13
26.217360019683838,-0.25,1.54,1.3,2.03
26.227470874786377,-0.66,3.7,1.31,3.98
26.237632036209106,-1.0,6.25,0.97,6.4
26.247594833374023,-1.25,8.86,0.45,8.95
26.258373975753784,-1.29,10.72,0.16,10.79
26.268311023712158,-1.29,11.55,0.6,11.63
26.295099020004272,-1.32,11.87,1.72,12.06
26.29612684249878,-1.32,11.99,2.83,12.38
26.298030853271484,-1.47,12.18,3.58,12.78
26.307765007019043,-1.88,12.58,4.07,13.35
26.319040060043335,-2.22,12.73,4.57,13.7
26.328988075256348,-2.24,12.52,4.54,13.5
26.339064121246338,-2.07,12.08,3.57,12.76
26.34908103942871,-1.79,11.53,2.66,11.96
26.359051942825317,-1.54,10.66,2.36,11.02
26.36907196044922,-1.43,9.54,2.15,9.88
26.39497995376587,-1.41,8.72,2.14,9.08
26.396061897277832,-1.67,8.11,2.24,8.57
26.398405075073242,-1.96,7.65,2.26,8.21
26.408533096313477,-2.13,7.37,2.21,7.98
26.41871690750122,-2.26,6.91,2.11,7.57
26.42886209487915,-2.08,6.13,2.29,6.86
26.43894386291504,-1.56,4.96,2.56,5.79
26.44926905632019,-0.96,3.63,2.72,4.63
26.45972204208374,-0.45,2.35,2.72,3.62
26.4698748588562,-0.16,1.13,2.74,2.96
26.499619960784912,-0.16,0.1,2.88,2.88
26.50068998336792,-0.24,-0.7,2.75,2.84
26.501483917236328,-0.13,-1.04,2.11,2.35
26.522182941436768,-0.1,-1.31,1.19,1.77
26.523494958877563,-0.09,-1.68,0.5,1.75
26.53751301765442,0.08,-2.18,0.23,2.19
26.539639949798584,0.18,-2.9,0.33,2.92
26.551240921020508,0.18,-3.88,0.88,3.98
26.56050705909729,0.17,-4.84,1.77,5.15
26.570345878601074,0.11,-5.61,2.58,6.17
26.600677967071533,-0.06,-6.33,3.1,7.04
26.602056980133057,-0.15,-6.96,3.36,7.73
26.60292911529541,-0.08,-7.38,3.34,8.1
26.621937036514282,0.0,-7.75,2.95,8.29
26.623183012008667,0.12,-8.11,2.43,8.46
26.63644504547119,0.27,-8.37,1.88,8.58
26.640313148498535,0.38,-8.56,1.34,8.67
26.650658130645752,0.4,-8.69,0.87,8.74
26.66118812561035,0.43,-8.73,0.62,8.76
26.67100501060486,0.41,-8.79,0.59,8.81
26.70064902305603,0.41,-9.02,0.64,9.05
26.70201015472412,0.46,-9.25,0.71,9.28
26.702903985977173,0.58,-9.37,0.76,9.41
26.721281051635742,0.7,-9.44,0.76,9.49
26.722090005874634,0.79,-9.55,0.88,9.62
26.73515295982361,0.88,-9.58,1.04,9.67
26.741437911987305,0.92,-9.56,1.12,9.66
26.751037120819092,0.93,-9.46,1.2,9.58
26.76186203956604,0.83,-9.25,1.15,9.35
26.771780967712402,0.57,-8.94,1.08,9.02
26.80293297767639,0.25,-8.44,1.18,8.52
26.80424213409424,-0.05,-7.84,1.27,7.94
26.80514907836914,-0.37,-7.39,1.01,7.46
26.82101583480835,-0.4,-6.96,0.58,6.99
26.821913957595825,-0.3,-6.66,0.22,6.67
26.83499503135681,-0.2,-6.42,0.26,6.42
26.841970920562744,0.0,-6.09,0.55,6.11
26.85171604156494,0.07,-5.72,0.89,5.78
26.86263608932495,-0.2,-5.45,1.58,5.67
26.872385025024414,-0.48,-4.94,2.2,5.42
26.902573108673096,-0.73,-4.08,2.3,4.74
26.90393900871277,-1.06,-3.09,1.99,3.82
26.904844999313354,-1.2,-2.03,1.32,2.7
26.920979022979736,-1.16,-1.05,0.31,1.59
26.92217206954956,-1.07,0.16,-0.5,1.19
26.935601949691772,-0.86,1.38,-0.94,1.87
26.942723035812378,-0.71,2.26,-0.94,2.54
26.95245099067688,-0.9,3.0,-0.43,3.16
26.962537050247192,-0.95,3.98,-0.1,4.09
26.973534107208252,-0.91,5.08,0.07,5.16
27.003592014312744,-0.64,6.4,0.46,6.44
27.00496006011963,-0.33,7.37,0.43,7.38
27.005810022354126,-0.12,8.19,0.19,8.19
27.020401000976562,0.17,9.24,0.15,9.24
27.02282190322876,0.34,10.39,0.22,10.39
27.034942150115967,0.16,11.37,0.49,11.38
27.043421030044556,-0.2,11.86,0.95,11.89
27.05401086807251,-0.52,12.04,2.03,12.22
27.063899993896484,-0.71,11.94,3.48,12.45
27.074249029159546,-1.12,11.72,4.81,12.71
27.099910020828247,-1.98,11.64,5.8,13.15
27.101297855377197,-3.02,11.48,6.35,13.46
27.103468894958496,-3.91,11.18,6.28,13.4
27.12067699432373,-4.21,10.7,5.55,12.76
27.123620986938477,-3.69,9.83,4.35,11.36
27.133645057678223,-2.59,8.55,2.95,9.4
27.143872022628784,-1.36,7.1,1.9,7.47
27.153854846954346,-0.36,5.65,1.27,5.8
27.164770126342773,0.3,4.3,0.74,4.37
27.17476797103882,0.66,3.16,0.44,3.25
27.203784942626953,0.75,2.17,0.45,2.33
27.205157995224,0.37,1.5,0.81,1.74
27.206026077270508,-0.28,0.94,1.83,2.07
27.220097064971924,-0.79,-0.17,2.95,3.05
27.224334955215454,-0.97,-1.37,3.5,3.88
27.234488010406494,-0.85,-2.34,3.5,4.29
27.244582176208496,-0.53,-3.21,3.26,4.6
27.25458002090454,-0.09,-4.03,2.77,4.89
27.265706062316895,0.22,-4.86,2.01,5.26
27.27504014968872,0.23,-5.59,1.35,5.75
27.30549192428589,0.28,-5.94,0.99,6.02
27.306908130645752,0.27,-6.07,0.58,6.1
27.307755947113037,0.29,-6.07,-0.14,6.07
27.31886601448059,0.27,-6.14,-0.94,6.21
27.32489800453186,0.22,-6.25,-1.32,6.39
27.335301876068115,0.21,-6.47,-1.04,6.55
27.345387935638428,0.08,-6.87,-0.08,6.87
27.355268955230713,-0.1,-7.3,0.95,7.36
27.36550807952881,-0.28,-7.64,1.66,7.82
27.37604808807373,-0.62,-7.99,2.22,8.31
27.40632700920105,-0.93,-8.33,2.77,8.82
27.40772795677185,-1.12,-8.67,3.15,9.29
27.40862202644348,-1.23,-8.94,3.17,9.56
27.416922092437744,-1.13,-9.08,2.88,9.59
27.425726890563965,-0.98,-9.14,2.59,9.55
27.436110019683838,-0.87,-9.17,2.27,9.48
27.44585084915161,-0.76,-9.22,1.9,9.44
27.456002950668335,-0.5,-9.2,1.54,9.34
27.466048002243042,-0.18,-9.1,1.18,9.17
27.476984977722168,0.16,-9.1,0.81,9.13
27.50619411468506,0.43,-9.17,0.4,9.18
27.507596969604492,0.53,-9.19,-0.06,9.2
27.508493900299072,0.48,-8.95,-0.43,8.97
27.516672134399414,0.33,-8.49,-0.64,8.52
27.526345014572144,0.08,-8.03,-0.69,8.05
27.536913871765137,-0.18,-7.62,-0.7,7.65
27.546653985977173,-0.51,-7.1,-0.47,7.13
27.556766033172607,-0.73,-6.35,0.01,6.39
27.56775188446045,-0.63,-5.86,0.26,5.89
27.57715606689453,-0.49,-5.64,0.17,5.66
27.60683584213257,-0.49,-5.33,0.29,5.36
27.608162879943848,-0.42,-4.49,0.72,4.56
27.609053134918213,-0.21,-3.43,1.01,3.58
27.61693501472473,-0.06,-2.45,1.25,2.75
27.627146005630493,-0.08,-1.27,1.75,2.16
27.637528896331787,-0.15,-0.18,1.95,1.96
27.647440910339355,-0.21,0.63,1.5,1.64
27.657428979873657,-0.04,1.61,0.99,1.89
27.668583869934082,0.29,2.37,0.71,2.49
27.678161144256592,0.57,3.14,0.42,3.21
27.70692801475525,0.55,4.26,0.4,4.31
27.708314895629883,0.33,6.02,0.84,6.08
27.70920991897583,-0.11,7.54,1.3,7.65
27.717626094818115,-0.36,8.73,1.88,8.93
27.72776699066162,-0.41,10.35,2.63,10.68
27.73865795135498,-0.53,11.93,2.97,12.3
27.74868392944336,-0.35,13.23,2.93,13.55
27.75864315032959,-0.07,14.17,2.71,14.42
27.769129991531372,0.14,14.63,2.17,14.79
27.77913498878479,0.24,14.75,1.68,14.84
27.804497003555298,-0.2,14.61,2.11,14.76
27.80587100982666,-1.05,13.92,3.04,14.28
27.808387994766235,-1.71,12.81,3.73,13.45
27.81854796409607,-2.21,11.7,4.4,12.69
27.829166889190674,-2.46,10.41,4.8,11.72
27.83927011489868,-2.21,8.94,4.66,10.32
27.848876953125,-1.63,7.42,4.44,8.79
27.858826160430908,-0.89,5.9,4.13,7.25
27.869226932525635,-0.16,4.48,3.62,5.76
27.879827976226807,0.54,3.2,3.12,4.5
27.906331062316895,1.02,2.08,2.57,3.46
27.90774703025818,1.11,1.16,1.9,2.48
27.90901803970337,0.82,0.6,1.55,1.85
27.919023036956787,0.4,0.12,1.54,1.59
27.929187059402466,-0.11,-0.42,1.63,1.68
27.939640045166016,-0.58,-0.93,1.95,2.23
27.949635982513428,-0.7,-1.76,2.17,2.88
27.959640979766846,-0.61,-2.78,2.13,3.55
27.969944953918457,-0.32,-3.62,2.02,4.15
27.980453968048096,0.09,-4.34,1.8,4.69
28.01042890548706,0.25,-5.29,1.64,5.54
28.01155710220337,0.31,-6.21,1.33,6.35
28.012351036071777,0.42,-6.96,0.79,7.01
28.034934043884277,0.54,-7.55,0.23,7.57
28.036169052124023,0.64,-7.97,-0.24,7.99
28.048027992248535,0.67,-8.36,-0.52,8.4
28.05022382736206,0.55,-8.68,-0.53,8.71
28.06381893157959,0.37,-8.82,-0.44,8.83
28.071377992630005,0.13,-8.92,-0.34,8.92
28.080967903137207,-0.15,-8.94,0.04,8.94
28.109153985977173,-0.48,-8.95,0.6,8.98
28.11030602455139,-0.73,-9.03,1.11,9.12
28.111105918884277,-0.92,-9.23,1.49,9.39
28.120540142059326,-1.08,-9.42,1.76,9.64
28.130643844604492,-1.28,-9.53,1.82,9.78
28.140830993652344,-1.49,-9.52,1.75,9.79
28.150866985321045,-1.7,-9.4,1.55,9.67
28.160933017730713,-1.88,-9.1,1.15,9.36
28.171982049942017,-1.92,-8.91,0.71,9.14
28.181705951690674,-1.69,-9.01,0.51,9.18
28.209943056106567,-1.21,-9.18,0.49,9.27
28.211090087890625,-0.76,-9.31,0.44,9.35
28.21190595626831,-0.48,-9.38,0.28,9.39
28.234575986862183,-0.31,-9.29,0.02,9.29
28.235833168029785,-0.12,-9.11,-0.27,9.11
28.247567176818848,-0.05,-8.97,-0.58,8.98
28.25168514251709,-0.06,-8.58,-0.65,8.6
28.26318097114563,-0.2,-7.93,-0.33,7.93
28.27253794670105,-0.23,-7.37,0.09,7.37
28.282160997390747,-0.03,-6.9,0.37,6.9
28.311995029449463,0.25,-6.42,0.46,6.44
28.313383102416992,0.27,-6.01,0.64,6.05
28.314296007156372,0.2,-5.65,0.97,5.73
28.333961009979248,0.37,-5.06,1.62,5.32
28.334840059280396,0.53,-4.39,2.81,5.23
28.347020149230957,0.54,-3.49,4.03,5.35
28.352341175079346,0.66,-2.11,4.55,5.05
28.362709045410156,0.85,-0.39,3.67,3.78
28.373201847076416,0.61,1.72,2.24,2.88
28.382946968078613,0.53,3.98,1.53,4.29
28.410681009292603,0.63,5.34,1.55,5.59
28.412128925323486,0.75,5.81,1.83,6.13
28.413025856018066,0.58,6.65,2.23,7.03
28.433326959609985,0.09,8.31,2.46,8.66
28.43426513671875,-0.58,10.12,2.1,10.35
28.446824073791504,-1.19,11.95,1.65,12.12
28.45387315750122,-1.64,13.48,1.28,13.63
28.463181972503662,-1.76,14.22,1.14,14.37
28.4739089012146,-1.59,14.12,1.22,14.26
28.48381805419922,-1.32,13.85,1.4,13.98
28.511128902435303,-1.44,13.56,1.97,13.77
28.512516975402832,-2.14,13.33,3.19,13.87
28.513468027114868,-2.78,12.83,4.29,13.81
28.530200958251953,-3.16,12.01,4.67,13.26
28.53357195854187,-3.09,11.14,4.46,12.39
28.54619312286377,-2.58,10.11,3.63,11.04
28.55384111404419,-1.71,9.02,2.41,9.49
28.563884973526,-0.93,7.98,1.37,8.14
28.57386016845703,-0.86,6.8,0.69,6.88
28.584672927856445,-1.42,5.96,1.42,6.28
28.61342191696167,-1.57,5.05,3.03,6.09
28.61483907699585,-1.29,3.75,3.87,5.54
28.615730047225952,-0.74,2.46,4.1,4.83
28.63406801223755,0.07,1.2,4.19,4.35
28.63492202758789,0.8,-0.04,3.99,4.06
28.646471977233887,1.13,-1.3,3.5,3.9
28.65452289581299,1.3,-2.28,2.72,3.77
28.664339065551758,1.33,-3.02,1.75,3.73
28.67582893371582,1.18,-3.71,0.96,4.0
28.68505597114563,0.68,-4.37,0.66,4.47
28.714527130126953,0.16,-4.56,1.06,4.68
28.715924978256226,-0.15,-4.57,1.5,4.81
28.71682095527649,-0.37,-4.84,1.6,5.11
28.732987880706787,-0.39,-5.44,1.44,5.64
28.734786987304688,-0.19,-6.12,1.26,6.25
28.74576711654663,0.05,-6.77,1.17,6.87
28.75518298149109,0.31,-7.38,1.08,7.46
28.765295028686523,0.52,-7.72,1.06,7.8
28.776174068450928,0.71,-7.85,1.18,7.96
28.785499095916748,0.73,-8.02,1.37,8.16
28.816372871398926,0.58,-8.34,1.53,8.49
28.817769050598145,0.35,-8.62,1.55,8.76
28.818650007247925,0.1,-8.7,1.64,8.85
28.832515001296997,-0.11,-8.59,1.62,8.74
28.83548903465271,-0.41,-8.51,1.46,8.64
28.845514059066772,-0.69,-8.56,1.25,8.67
28.855915069580078,-0.83,-8.57,1.11,8.68
28.865775108337402,-0.88,-8.62,1.08,8.73
28.87678599357605,-0.83,-8.76,1.33,8.89
28.886263847351074,-0.63,-9.15,1.59,9.3
28.917150020599365,-0.35,-9.58,1.6,9.71
28.918528079986572,-0.05,-9.72,1.36,9.81
28.919426918029785,0.21,-9.64,0.99,9.69
28.93090009689331,0.25,-9.49,0.61,9.51
28.93621587753296,0.05,-9.22,0.15,9.22
28.946351051330566,-0.23,-8.73,-0.37,8.74
28.95690107345581,-0.45,-8.08,-0.72,8.12
28.966541051864624,-0.59,-7.46,-0.74,7.51
28.976715087890625,-0.77,-7.04,-0.48,7.09
28.98744797706604,-0.81,-6.64,-0.33,6.69
29.016123056411743,-0.77,-6.07,-0.3,6.12
29.0173921585083,-0.77,-5.58,-0.09,5.63
29.018234968185425,-0.85,-5.21,0.51,5.3
29.032304048538208,-1.08,-4.39,1.25,4.69
29.03696298599243,-1.29,-3.12,1.9,3.87
29.047120094299316,-1.35,-1.79,2.34,3.24
29.057307958602905,-1.01,-0.02,2.41,2.61
29.067235946655273,-0.38,1.74,2.16,2.79
29.077499866485596,0.29,2.82,2.19,3.58
29.08820104598999,0.73,3.12,2.62,4.13
29.11799907684326,0.91,3.51,3.02,4.71
29.119384050369263,1.28,4.48,3.09,5.59
29.120283126831055,1.65,6.1,3.06,7.02
29.130218982696533,1.85,7.94,2.9,8.65
29.13770294189453,1.83,9.02,2.53,9.54
29.148123025894165,1.62,9.66,2.27,10.05
29.158612966537476,1.35,10.45,2.08,10.74
29.168853044509888,1.08,11.38,1.72,11.55
29.178827047348022,0.4,12.38,1.25,12.44
29.188912868499756,-0.49,12.88,0.8,12.91
29.214627981185913,-1.54,12.96,0.83,13.07
29.215927124023438,-2.86,12.69,1.36,13.07
29.218485832214355,-4.01,12.32,2.01,13.11
29.22851300239563,-4.87,12.13,2.97,13.4
29.238708972930908,-5.37,11.59,3.96,13.37
29.24919891357422,-5.48,11.14,4.28,13.13
29.259286880493164,-4.98,10.63,3.61,12.28
29.269278049468994,-3.51,9.69,2.28,10.55
29.279443979263306,-1.69,8.68,1.01,8.9
29.288931846618652,0.08,7.17,-0.05,7.17
29.314752101898193,1.28,5.01,-0.34,5.18
29.316142082214355,1.78,2.67,0.29,3.22
29.318811893463135,1.69,0.85,1.31,2.3
29.33076810836792,1.06,-0.31,2.54,2.76
29.33896017074585,0.33,-1.28,3.32,3.57
29.349081993103027,-0.15,-2.02,3.61,4.13
29.35935401916504,-0.41,-2.7,3.67,4.57
29.369407176971436,-0.49,-3.38,3.33,4.77
29.37952494621277,-0.45,-4.08,2.56,4.83
29.390156984329224,-0.36,-4.93,1.7,5.22
29.417914867401123,-0.09,-5.89,0.99,5.97
29.41929006576538,0.21,-6.82,0.45,6.83
29.420177936553955,0.36,-7.55,0.21,7.56
29.42958402633667,0.33,-8.01,0.18,8.01
29.440013885498047,0.13,-8.37,0.23,8.37
29.44987392425537,-0.13,-8.65,0.35,8.65
29.460136890411377,-0.34,-8.8,0.48,8.81
29.470054149627686,-0.45,-8.79,0.6,8.82
29.480896949768066,-0.52,-8.71,0.78,8.76
29.49096393585205,-0.57,-8.78,1.09,8.86
29.51976704597473,-0.57,-8.91,1.38,9.03
29.521172046661377,-0.58,-8.97,1.41,9.09
29.52208709716797,-0.7,-9.04,1.15,9.13
29.530345916748047,-0.79,-9.08,0.75,9.14
29.543086051940918,-0.81,-8.93,0.3,8.97
29.55062484741211,-0.78,-8.76,-0.06,8.79
29.560744047164917,-0.68,-8.9,-0.17,8.92
29.57115411758423,-0.59,-9.18,0.05,9.19
29.580919981002808,-0.47,-9.36,0.52,9.38
29.591917037963867,-0.36,-9.43,0.84,9.47
29.62123394012451,-0.3,-9.47,0.73,9.5
29.622429847717285,-0.16,-9.37,0.36,9.37
29.62320613861084,-0.03,-9.08,0.0,9.08
29.631026029586792,-0.08,-8.71,-0.27,8.71
29.641377925872803,-0.3,-8.15,-0.37,8.16
29.651406049728394,-0.43,-7.36,-0.38,7.38
29.661537170410156,-0.49,-6.65,-0.45,6.68
29.671814918518066,-0.4,-6.13,-0.35,6.15
29.682351112365723,-0.35,-5.67,0.18,5.68
29.692214012145996,-0.59,-5.25,1.13,5.4
29.721609115600586,-0.9,-4.5,2.04,5.02
29.72271203994751,-1.15,-3.65,2.26,4.44
29.72349500656128,-0.75,-2.77,2.11,3.56
29.731729984283447,0.4,-1.5,1.75,2.33
29.742023944854736,1.32,-0.35,1.03,1.71
29.751914024353027,1.56,0.64,0.36,1.72
29.762282848358154,1.42,1.92,0.03,2.38
29.77243995666504,1.14,3.22,-0.1,3.41
29.782341957092285,1.06,4.17,0.42,4.32
29.792787075042725,1.06,4.9,1.59,5.25
29.821910858154297,0.87,5.39,2.91,6.18
29.823001861572266,0.92,6.4,3.99,7.59
29.82375192642212,0.78,7.57,4.3,8.74
29.845319032669067,0.56,8.61,3.97,9.49
29.84657907485962,0.57,9.68,3.36,10.26
29.860217094421387,0.69,10.52,2.77,10.9
29.86321210861206,0.7,11.0,2.5,11.3
29.874223947525024,0.22,11.32,2.8,11.66
29.883490085601807,-0.88,11.53,3.45,12.06
29.893548011779785,-2.25,11.69,4.05,12.57
29.92129611968994,-3.51,12.08,4.53,13.37
29.92278003692627,-4.27,12.02,4.72,13.6
29.923766136169434,-4.41,11.36,4.46,12.97
29.943408966064453,-4.09,10.3,3.78,11.7
29.944342136383057,-3.51,8.98,2.71,10.01
29.9596529006958,-2.73,7.69,1.82,8.36
29.963615894317627,-1.85,6.48,1.31,6.86
29.973896980285645,-1.06,5.38,1.14,5.6
29.983703136444092,-0.42,4.4,1.23,4.58
29.994927883148193,-0.07,3.54,1.57,3.87
30.02262306213379,0.01,2.71,2.01,3.37
30.024006843566895,0.03,1.77,2.32,2.91
30.02485990524292,0.06,0.81,2.22,2.36
30.044443130493164,0.11,-0.25,2.18,2.19
30.045397996902466,0.21,-1.28,2.44,2.76
30.059180974960327,0.18,-2.28,2.63,3.48
30.064337968826294,0.19,-3.3,2.46,4.12
30.07449197769165,0.16,-4.14,2.12,4.65
30.085057020187378,0.25,-4.62,1.61,4.89
30.09514617919922,0.29,-5.09,0.97,5.18
30.123167037963867,0.18,-5.71,0.9,5.78
30.124588012695312,0.17,-6.31,1.02,6.39
30.125481128692627,0.13,-6.58,0.91,6.64
30.14429497718811,-0.03,-6.86,0.95,6.92
30.14519500732422,-0.19,-7.26,0.97,7.32
30.15922212600708,-0.43,-7.42,1.0,7.49
30.165052890777588,-0.17,-7.64,2.28,7.97
30.17494010925293,-0.23,-8.42,2.43,8.76
30.185813903808594,-0.17,-8.79,2.19,9.06
30.195746898651123,-0.08,-9.08,2.01,9.3
30.226243019104004,-0.12,-9.37,1.94,9.56
30.22760796546936,-0.34,-9.4,1.79,9.57
30.228513956069946,-0.62,-9.2,1.49,9.34
30.24455499649048,-0.75,-9.17,1.21,9.27
30.24552297592163,-0.84,-9.58,1.89,9.8
30.258631944656372,-0.8,-9.8,1.54,9.95
30.26560401916504,-0.45,-9.59,0.98,9.65
30.275822162628174,-0.33,-9.54,0.73,9.57
30.2866530418396,-0.32,-9.31,-0.09,9.31
30.296475887298584,-0.31,-9.04,-0.78,9.07
