time,ax,ay,az,atotal
0.013435125,0.21,-0.12,-0.61,0.65
0.018421888,1.11,-0.17,-0.67,1.3
0.028604984,2.27,0.43,0.14,2.31
0.038942099,2.31,0.68,1.22,2.69
0.049314022,1.4,1.16,2.32,2.94
0.063073874,0.77,1.5,1.53,2.27
0.079916,0.44,0.81,0.18,0.93
0.081321955,0.27,0.38,-1.9,1.95
0.088601828,-0.11,0.78,-2.14,2.28
0.098577976,-0.69,1.26,-0.84,1.66
0.108535051,-0.8,0.88,0.2,1.2
0.119235992,-0.29,0.23,0.46,0.59
0.129306078,0.15,0.08,-0.02,0.17
0.139209032,0.32,0.18,-0.2,0.41
0.149230957,0.8,0.29,-0.3,0.9
0.162974119,1.28,0.48,-0.6,1.49
0.182112932,0.98,0.47,-0.54,1.21
0.183578014,0.61,0.21,-0.57,0.86
0.188440084,0.66,0.13,-1.14,1.32
0.198640108,0.93,-0.3,-2.14,2.35
0.209113836,1.28,-0.87,-2.51,2.94
0.220914125,2.26,-1.64,-3.33,4.34
0.229063988,3.36,-2.13,-3.6,5.36
0.239123106,3.71,-1.68,-3.2,5.17
0.249078035,2.8,0.87,-3.77,4.77
0.263072014,0.58,4.19,-3.53,5.5
0.27878499,-0.42,3.58,0.85,3.7
0.280215025,-1.9,1.45,3.42,4.17
0.288522005,-2.21,1.44,1.39,2.98
0.298649073,-1.3,2.19,1.02,2.74
0.308470011,0.04,2.05,-0.85,2.21
0.31918788,1.54,1.3,-2.95,3.57
0.329200029,-0.01,2.41,-0.48,2.45
0.339540958,-0.45,4.09,4.9,6.39
0.34928298,0,4.64,8.79,9.93
0.364915133,-0.45,5.57,12.13,13.35
0.381000996,-1.84,7.25,15.9,17.57
0.382462025,-4.15,10.34,19.5,22.45
0.38845396,-5.69,12.89,24.31,28.09
0.399600983,-6.16,12.81,27.71,31.14
0.409149885,-4.69,12.53,27.38,30.47
0.419288874,-2.49,12.18,26.67,29.42
0.429358959,0.7,10.83,23.24,25.64
0.439595938,1.93,9.53,20.36,22.56
0.449340105,1.3,8.19,17.49,19.35
0.463136911,-0.99,8.44,14.65,16.93
0.480623007,-3.64,8.47,13.12,16.03
0.482053041,-6.15,7.42,12.22,15.56
0.488489866,-9.14,7.52,11.99,16.84
0.498672962,-12.83,6.63,11.86,18.68
0.508498907,-15.76,4.01,11.41,19.86
0.519175053,-16.3,0.98,12.51,20.57
0.529397011,-15.78,-1.9,13.77,21.02
0.539530993,-14.67,-4.86,13.13,20.27
0.549320936,-15.86,-6.44,11.68,20.72
0.563257933,-19.76,-7.71,10.04,23.46
0.578848124,-23.74,-8.63,10.15,27.22
0.580307961,-26.17,-9.27,11.77,30.15
0.588981867,-27.05,-10.6,14.99,32.69
0.599735975,-27.25,-11.74,18.7,35.07
0.60888195,-28.09,-12.4,21.73,37.61
0.619248152,-28.28,-13.17,23.99,39.35
0.629426003,-27.41,-14.83,25.44,40.22
0.639317989,-26.17,-15.98,25.63,39.96
0.649348021,-23.87,-17.27,25.16,38.74
0.663280964,-21.21,-18.85,25.92,38.43
0.679286957,-18.9,-19.71,26.62,38.13
0.680807829,-17.02,-20.55,26.88,37.87
0.689075947,-14.2,-22.08,26.91,37.59
0.698487043,-13.16,-21.9,26.28,36.65
0.708979845,-12.83,-21.66,25.21,35.62
0.718687057,-11.58,-24.49,22.54,35.24
0.729409933,-9.33,-26.84,16.22,32.71
0.739173174,-5.9,-30.87,8.75,32.62
0.74932003,-0.54,-36.86,0.71,36.87
0.763010025,6.86,-43.09,-8.66,44.48
0.779805899,11.74,-46.03,-17.61,50.66
0.781286955,13.51,-48.18,-25.99,56.38
0.788471937,16.37,-50.8,-32.2,62.33
0.799023867,20.53,-54.3,-37.55,69.13
0.808965921,24.06,-55.33,-40.96,72.92
0.81931901,26.2,-55.86,-40.04,73.55
0.82941103,25.56,-55.14,-35.35,70.3
0.839287043,22.38,-54.04,-26.7,64.29
0.849367857,17.8,-53.69,-14.76,58.45
0.863270044,10.41,-53.04,0.46,54.05
0.879469156,-0.43,-51.04,18.86,54.41
0.880910158,-12.93,-46.99,37.13,61.26
0.888509989,-22.6,-41.83,48.72,68.07
0.899069071,-28.13,-35.88,53.8,70.52
0.909029007,-30.13,-31.76,52.3,68.2
0.919505835,-28.1,-29.49,46.54,61.84
0.929378986,-23.36,-28.48,40.43,54.69
0.939515829,-18.69,-26.7,35.67,48.31
0.949324846,-15.73,-25.02,31.93,43.5
0.963698149,-14.04,-24.1,29.07,40.28
0.97894001,-13.29,-23.09,27.51,38.29
0.980401993,-13.52,-22.87,27.31,38.1
0.989334822,-14.06,-22.61,25.83,37.09
0.999011993,-15.22,-22.17,23.54,35.73
1.009248018,-17.11,-21.96,21.94,35.44
1.019279003,-19.16,-20.08,20.17,34.3
1.029350042,-21.49,-15.48,19.5,32.88
1.039227009,-22.24,-8.78,20.71,31.63
1.049401045,-21.05,0.63,23.49,31.54
1.063145876,-18.33,9.21,23.83,31.44
1.079447985,-15.09,16.01,20.5,30.07
1.080909014,-13.48,21.56,16.11,30.1
1.088598967,-15.99,27.58,14.22,34.9
1.098582029,-20.59,33.57,15.66,42.38
1.10929513,-25.7,39.67,19.35,51.07
1.119236946,-30.8,45.06,25.87,60.4
1.129291058,-33.49,48.29,35.16,68.48
1.139199972,-33.73,49.05,43.27,73.59
1.149473906,-32.7,47.13,45.8,73.4
1.163725138,-30.81,43.96,44.51,69.73
1.179240942,-27.8,38.97,44.09,65.08
1.180696964,-25.55,33.82,43.95,61.05
1.189028978,-25.83,29.55,42.13,57.57
1.199064016,-26.73,25.04,39.04,53.53
1.209058046,-27.44,20.24,34.69,48.64
1.219388962,-26.66,14.96,29.54,42.51
1.229176998,-23.9,9.23,25.62,36.23
1.239532948,-19.61,3.19,23.16,30.51
1.249356031,-15.4,-2.73,22.31,27.24
1.263973951,-12.92,-8.54,22.68,27.46
1.279211998,-11.52,-14.84,22.82,29.55
1.280663967,-10.68,-20.37,22.49,32.16
1.289083958,-10.03,-24.54,21.28,33.99
1.299084902,-9.9,-26.64,20.19,34.86
1.309059858,-10.39,-26.88,20.8,35.54
1.319776058,-11.37,-26.49,22.6,36.63
1.329418898,-12.38,-26.07,24.21,37.67
1.339239836,-13.41,-25.38,26.21,38.87
1.349352121,-15.59,-24.66,28.8,40.99
1.363142014,-17.41,-24.09,29.52,41.89
1.379518032,-17.22,-23.85,29.19,41.44
1.380959034,-16.83,-23.1,29.71,41.22
1.388465166,-16.4,-21.94,30.89,41.28
1.399065971,-14.91,-21.45,32.56,41.74
1.409054995,-12.83,-23.04,33.78,42.85
1.419013023,-10.59,-26.31,32.12,42.84
1.429366827,-7.81,-28.76,27.13,40.3
1.439272165,-3.43,-30.76,20.27,36.99
1.449390173,2.75,-32.24,11.24,34.25
1.463274002,8.75,-33.28,2.77,34.52
1.480039835,12.89,-35.48,-3.59,37.91
1.48149991,14.8,-39.88,-7.22,43.14
1.488502026,17.04,-45.94,-10.86,50.18
1.499169111,21.69,-52.19,-18.13,59.35
1.509333849,27.5,-55.56,-27.84,67.95
1.518976927,33.79,-58.43,-34.79,75.93
1.530001879,37.37,-59.82,-38.23,80.22
1.538923979,38.87,-59.52,-35.69,79.54
1.549257994,36.72,-57.7,-27.94,73.88
1.563496828,30.97,-55.26,-16.87,65.55
1.578977823,22.64,-53.27,-2.59,57.93
1.580446005,10.66,-50.9,15.98,54.4
1.588946104,-3.59,-47.04,35.54,59.06
1.598917007,-16.4,-42.48,51.44,68.69
1.609045029,-25.62,-37.57,60.78,75.9
1.618767023,-31.54,-31.83,62.45,76.86
1.629588842,-33.73,-26.94,58.63,72.8
1.63946414,-32.3,-23.47,52.54,65.98
1.649492025,-29.05,-20.82,45.3,57.7
1.662289858,-24.14,-19.32,37.49,48.59
1.679416895,-18.71,-19.55,30.97,41.12
1.680881023,-14.47,-19.82,26.56,36.16
1.689069033,-12.21,-19.85,23.99,33.44
1.69896698,-11.85,-19.38,23.56,32.72
1.708866835,-12.69,-18.19,24.09,32.74
1.719053984,-14.22,-16.16,24.45,32.57
1.72852397,-16.36,-14.23,24.12,32.43
1.739235163,-17.85,-11.52,21.26,30.05
1.748921156,-16.36,-7.73,18.24,25.69
1.762221098,-14.01,-2.61,17.25,22.37
1.779520988,-12.21,3.45,16.63,20.91
1.780998945,-10.93,11.06,16.5,22.67
1.788946867,-13.09,18.54,15.44,27.44
1.798938036,-17.6,25.68,12.97,33.72
1.808789015,-22.03,33.39,12.52,41.91
1.818758965,-27.69,40.27,15.86,51.38
1.828984022,-32.11,45.88,21.04,59.82
1.83894515,-32.72,48.58,29.72,65.68
1.849334955,-31.56,47.81,38.5,69.02
1.862449884,-28.54,44.08,43.04,67.89
1.879066944,-25.81,40.93,44.95,66.04
1.880520105,-26.68,38.4,46.38,65.85
1.888914824,-29.38,36,46.16,65.49
1.899181128,-30.7,33.09,44.13,63.12
1.909159899,-29.65,29.4,41.04,58.54
1.919078112,-25.72,24.98,35.43,50.4
1.929453135,-19.58,20.11,29.9,41
1.939239025,-13.8,15.24,26.17,33.28
1.949835062,-9.31,10.34,23.82,27.58
1.963359118,-5.06,4.43,22.3,23.29
1.979889154,-2.76,-1.49,21.59,21.81
1.981320143,-1.72,-8,20.47,22.04
1.98921299,-1.65,-14.21,19.58,24.24
1.999014139,-3.13,-18.39,19.21,26.77
2.009665966,-5.2,-21.34,19.64,29.46
2.019024134,-7.43,-22.9,21.23,32.09
2.030118942,-10.46,-22.97,23.08,34.2
2.039286852,-13.13,-22.62,26.19,37.01
2.049329996,-14.43,-22.22,31.24,40.96
2.063016176,-14.29,-22.25,34.71,43.63
2.079972029,-13.41,-22.15,33.94,42.68
2.08143115,-12.51,-21.54,32.25,40.74
2.089053869,-12.89,-20.79,32.09,40.35
2.099150896,-14.2,-20.05,33.71,41.71
2.109055996,-15.62,-19.34,35.95,43.7
2.119002104,-16.52,-19.07,37.73,45.38
2.129426003,-15.43,-20.59,37.98,45.87
2.139690161,-11.8,-24.41,36.15,45.18
2.149297953,-6.45,-28.94,30.3,42.39
2.163524866,-1.09,-32.22,22.45,39.28
2.179589033,3.4,-34.72,13.63,37.45
2.181022882,5.95,-36.05,5.18,36.9
2.18850112,9.72,-39.44,-0.85,40.62
2.199182034,16.48,-46.42,-6.69,49.71
2.209023952,25.4,-56.11,-15.16,63.42
2.218976974,33.91,-65.09,-27.45,78.35
2.229207039,39.02,-69.49,-39.38,88.89
2.23943305,41.19,-70.19,-44.7,92.85
2.249310017,41.73,-68.73,-41.87,90.65
2.26338315,40.33,-66.38,-33.99,84.78
2.280233145,35.74,-64.11,-22.67,76.82
2.281713009,29.75,-61.96,-5.36,68.94
2.288986921,20.18,-59.75,15.11,64.85
2.298900843,5.51,-55.87,36.24,66.82
2.309077978,-10.76,-49.3,56.93,76.07
2.31930089,-22.29,-40.08,72.18,85.51
2.329381943,-25.94,-31.11,77.28,87.25
2.339348078,-24.88,-25.96,72.67,81.07
2.349406004,-22.18,-23.73,63.34,71.18
2.363219976,-19.01,-22.6,54.69,62.15
2.380522966,-16.35,-21.99,47.04,54.43
2.382004023,-14.24,-21.58,39.48,47.19
2.389322042,-11.94,-21.3,33.95,41.81
2.399181128,-10.05,-21.36,30.55,38.6
2.40913415,-9.08,-21.54,28.49,36.85
2.419089079,-9.52,-21.05,27.32,35.77
2.429165125,-11.62,-20.28,27.14,35.81
2.439342976,-14.1,-18.77,26.91,35.71
2.449310064,-16.17,-15.99,25.83,34.41
2.46288085,-17.7,-12.19,23.63,31.94
2.479866982,-16.75,-6.86,21,27.72
2.481334925,-14.27,-0.18,20.21,24.74
2.488823175,-13.38,8.27,19.72,25.22
2.499073029,-14.45,16.52,20.65,30.13
2.508958101,-17.72,27.05,22.16,39.2
2.519067049,-21.72,35.55,23.03,47.6
2.529055834,-24.45,42.38,23.9,54.45
2.539377928,-26.61,48.25,26.44,61.11
2.549372911,-28.22,51.13,31.74,66.46
2.56278491,-30.18,51.86,38.44,71.25
2.579565048,-32.84,48.86,44.59,73.85
2.58099103,-36.84,45.39,48.2,75.76
2.588984966,-41.47,42.3,52.44,79.11
2.599182844,-44.46,38.33,54.65,80.2
2.609040022,-43.85,33.81,52.56,76.34
2.619249105,-38.43,28.61,48.01,67.82
2.629127979,-29.87,23.22,41.85,56.41
2.639018059,-20.37,17.22,34.56,43.65
2.6493361,-11.91,11.4,27.76,32.28
2.662957907,-5.97,5.77,23.51,24.93
2.680232048,-2.42,-0.19,21.61,21.74
2.681661844,-1.34,-5.82,21.02,21.85
2.689031839,-1.61,-11.58,20.97,24
2.699139833,-2.28,-17.17,20.81,27.07
2.709658861,-3.57,-21.21,21,30.06
2.718770027,-5.7,-23.91,22.58,33.37
2.729430914,-9.3,-24.85,25.14,36.55
2.739322901,-13.62,-24.26,30.6,41.35
2.749465942,-16.95,-23.66,36.6,46.76
2.762873888,-18.32,-23.27,39.4,49.28
2.780081987,-18.44,-22.57,40.99,50.29
2.781515837,-18.26,-21.95,42.67,51.34
2.789073944,-17.82,-22.25,44.15,52.55
2.799252987,-17.18,-22.32,44.46,52.63
2.809024096,-16.31,-22.25,43.51,51.51
2.819070101,-14.4,-23.32,41.34,49.6
2.829355955,-11.77,-25.62,38.52,47.73
2.839297056,-7.25,-30.8,34.8,47.03
2.849596024,-1.65,-37.33,28.72,47.12
2.86316514,2.95,-42.73,19.85,47.2
2.880647898,7.44,-47.58,9.74,49.13
2.882098913,13.19,-51.19,0.18,52.86
2.889086962,20.65,-55.85,-9.63,60.31
2.898976088,27.84,-62.6,-19.75,71.3
2.909716845,32.55,-67.12,-30.37,80.54
2.918807983,35.82,-69.42,-37.48,86.64
2.929792166,38.64,-70.09,-39.63,89.3
2.93937993,40.16,-69.25,-37.25,88.29
2.949365854,37.98,-67.56,-30.68,83.35
2.963413,32.25,-64.74,-20.08,75.06
2.982004881,24.2,-62.45,-4.13,67.1
2.983455896,13.17,-60.21,16.05,63.68
2.988867044,-1.93,-55.68,38.22,67.56
2.998924971,-17.08,-48.48,57.19,76.89
3.009443045,-26.29,-40.17,68.59,83.72
3.019316912,-29.92,-33.97,69.66,83.07
3.029368162,-29.01,-29.54,63.94,76.17
3.03919816,-25.9,-26.36,56.45,67.47
3.049610853,-21.09,-24.57,49.04,58.76
3.065108061,-16.5,-22.72,41.7,50.27
3.082391024,-13.7,-21.51,34.99,43.29
3.083852053,-12.26,-21.09,30.03,38.68
3.088549852,-11.95,-20.92,27.16,36.3
3.099275827,-12.69,-20.57,26.21,35.65
3.109109163,-14.15,-19.75,27.07,36.37
3.119745016,-15.79,-18.73,27.13,36.55
3.129418135,-17.34,-16.94,26.3,35.76
3.139634848,-18.74,-14.78,25.98,35.27
3.149436951,-20.15,-11.56,25.87,34.76
3.163351059,-19.6,-7.71,26.99,34.23
3.181203127,-19.08,-2.57,28.13,34.08
3.182693005,-21,4.11,25.36,33.18
3.188424826,-22.96,13.17,23.18,35.18
3.199038982,-24.89,22.26,22.84,40.45
3.209063053,-24.56,30.57,24.16,46.05
3.219349146,-22.86,39.77,27.27,53.36
3.22939992,-21.53,46.62,32.66,60.85
3.239248991,-20.1,51.06,40.05,67.93
3.249439955,-18.55,54.69,48.21,75.22
3.264119864,-16.94,56.42,53.18,79.36
3.280999899,-16.12,56.27,53.72,79.44
3.282505989,-17.75,54.23,54.18,78.68
3.288493872,-19.56,49.65,53.87,75.82
3.299156904,-20.54,44.2,51.37,70.81
3.309059858,-21.12,37.48,47.26,63.9
3.318854094,-21.25,29.74,41.19,55.06
3.329499006,-18.38,22.13,35.92,46.01
3.339336157,-14.55,14.37,30.8,36.97
3.349611044,-10.84,6.52,25.46,28.42
3.363948107,-7.78,-0.94,22.26,23.59
3.380947828,-6.32,-7.26,21.29,23.36
3.382375956,-6.35,-12.55,22.16,26.24
3.388780832,-7.42,-16.77,23.47,29.78
3.399209023,-8.29,-20.81,25.45,33.9
3.409175158,-9.11,-24.59,27.79,38.2
3.418982029,-11.35,-26.89,30.37,42.12
3.429393053,-14.61,-27.76,34.23,46.43
3.439624071,-17.23,-27.87,37.3,49.64
3.449350119,-18.3,-28.84,39.91,52.53
3.463373899,-18.59,-29.32,42.19,54.63
3.480805159,-18.31,-29.63,44.79,56.73
3.482306957,-17.12,-30.33,48.17,59.44
3.488859892,-16.04,-30.79,50.39,61.19
3.499217987,-14.82,-31.15,49.44,60.28
3.509636164,-12.91,-31.05,47.09,57.86
3.518881083,-11.09,-31.43,44.73,55.78
3.528879881,-8.61,-33.99,42.52,55.11
3.539268017,-5.44,-39.34,39.35,55.9
3.549327135,-2.25,-44.1,32.03,54.55
3.563133001,2.81,-48.23,21.88,53.03
3.580877066,12.21,-55.66,10.15,57.88
3.5823071,23.67,-61.96,-5.08,66.52
3.588741064,34.95,-69.23,-20.59,80.23
3.599174023,42.97,-74.73,-34.22,92.74
3.609092951,49.86,-75.95,-42.88,100.46
3.619108915,57.85,-76.74,-45.92,106.5
3.629597902,62.87,-76.53,-44.82,108.71
3.639719963,61.26,-75.47,-39.38,104.87
3.649384022,53.39,-73.36,-28.67,95.15
3.663461924,41.8,-70.92,-10.08,82.93
3.681635141,27.57,-68.86,15.21,75.71
3.683084011,9.32,-66.45,42.17,79.25
3.688456059,-11.46,-61.17,65.2,90.13
3.69925189,-28.19,-52.62,80.39,100.13
3.709105015,-37.37,-42.78,83.21,100.74
3.719285011,-38.97,-34.78,79.77,95.34
3.729429007,-34.81,-29.51,69.61,83.23
3.739758015,-28.84,-26.41,58.16,70.08
3.749341965,-22.46,-25.37,49.42,59.92
3.76333499,-16.49,-25.02,42.21,51.76
3.781900167,-12.27,-23.66,37.34,45.87
3.783375978,-10.15,-21.69,35.11,42.49
3.788436174,-9.64,-19.66,33.93,40.38
3.799105883,-9.78,-17.84,34.01,39.63
3.80906105,-11.24,-16.27,33.82,39.17
3.819340944,-14.03,-15.22,31.54,37.72
3.829887152,-18.21,-13.32,28.16,36.08
3.839051008,-23.28,-10.07,24.92,35.55
3.849421024,-25.92,-3.56,24.72,35.99
3.863365889,-25.63,6.22,27.53,38.12
3.880118132,-24.68,17.01,28,41.01
3.881589174,-21.65,29.35,26.51,45.08
3.888686895,-19.17,41.28,26.85,52.84
3.899132967,-18.53,50.07,29.18,60.84
3.90932107,-19.49,56.27,31.7,67.46
3.91909194,-21.98,58.91,35.64,72.27
3.929191828,-24.5,59.69,42.36,77.18
3.939280033,-28.02,59.66,51.42,83.59
3.949497938,-33.56,58.91,57.07,88.62
3.962965965,-36.63,55.31,57.28,87.64
3.981119871,-34.56,48.44,56.87,82.31
3.982610941,-28.17,39.05,53.57,72.02
3.988775015,-20.24,29.19,43.49,56.15
3.999121904,-13.7,20.28,32.41,40.61
4.009164095,-9.64,12.67,25.41,29.98
4.018962145,-7.8,6.58,21.77,24.04
4.029428005,-6.85,1.29,20.52,21.67
4.039305925,-5.86,-4.43,20.96,22.21
4.049424887,-4.93,-10.17,21.57,24.35
4.063267946,-4.6,-15.24,21.13,26.45
4.082164049,-4.79,-19.27,21.01,28.9
4.083600044,-5.75,-22.28,23.42,32.83
4.088783979,-8.47,-23.47,27.76,37.32
4.099148035,-12.04,-24,32.6,42.23
4.109068155,-16.21,-23.69,36.75,46.63
4.118834019,-19.78,-22.82,41.15,51.04
4.129419088,-21.31,-23.12,46.19,55.87
4.139263868,-21.99,-24.38,51.31,60.91
4.149369001,-21.73,-26.29,53.53,63.47
4.163420916,-20.12,-27.6,53.69,63.63
4.182124853,-17.74,-28.17,52.21,61.92
4.183604002,-14.43,-29.02,48.47,58.3
4.188467026,-11.93,-29.11,43.73,53.87
4.199174166,-10.12,-30.85,38.99,50.73
4.20915103,-5.85,-37.08,33.8,50.51
4.218983889,2.86,-46.04,26.81,53.35
4.229447126,12.61,-54.24,16.18,57.98
4.23916316,22.34,-62.86,1.09,66.72
4.249640942,34.9,-71.07,-14.32,80.46
4.26327014,46.08,-80.58,-29.3,97.33
4.281278849,51,-81.79,-41.78,105.05
4.282762051,54.39,-81.03,-46.05,107.91
4.288470984,56.37,-78.39,-42.7,105.57
4.298949957,54.08,-74.46,-34.39,98.24
4.309154034,47.37,-70.44,-22.26,87.75
4.319379091,37.46,-67.09,-4.36,76.96
4.329450846,24.4,-64.38,18.16,71.2
4.33969903,7.42,-59.51,40.84,72.55
4.349454165,-9.29,-53.08,61,81.39
4.364081144,-20.79,-44.77,75.23,89.97
4.381552935,-25.24,-37.72,79.33,91.39
4.383035898,-25.78,-32.77,74.58,85.44
4.388690948,-25.79,-28.98,68.53,78.74
4.399163008,-25.82,-25.97,63.66,73.44
4.409122944,-24.97,-23.41,56.82,66.33
4.41899085,-22,-21.96,48.96,57.99
4.429923058,-17.56,-21.14,42.34,50.47
4.439466,-13.79,-21.28,36.11,44.12
4.450080156,-11.53,-21.45,31.25,39.61
4.463027,-11.27,-20.85,29.49,37.83
4.481528044,-12.44,-19.69,29.27,37.4
4.482967138,-14.08,-15.91,29.46,36.32
4.488570929,-15.61,-11.5,28.99,34.87
4.499190092,-16.03,-6.3,27.96,32.83
4.509222031,-14.29,-1.64,26.99,30.58
4.519037962,-11.46,1.85,25.7,28.2
4.529557943,-11.07,8.02,24.28,27.86
4.539320946,-13.71,15.86,23.32,31.35
4.550052881,-16.56,25.09,23.21,37.97
4.563804865,-18.96,35.25,26.44,47.96
4.581923962,-22.23,44.68,32.11,59.34
4.583411932,-26.63,53.98,37.88,71.11
4.589152098,-30.14,59.8,46.13,81.31
4.599185944,-32.14,62.54,55.02,89.28
4.609117031,-33.94,64.58,60.38,94.7
4.618908167,-35.47,64.07,63.44,96.89
4.62951684,-34.75,59.86,64.54,94.63
4.639675856,-30.14,52.16,62.97,87.14
4.649751902,-23.27,42.07,57.83,75.2
4.664211035,-16.14,31.11,48.52,59.85
4.68285203,-10.57,20.67,39.49,45.8
4.684299946,-7.15,10.97,32.66,35.18
4.688434839,-5.02,2.39,28.12,28.66
4.699183941,-3.11,-5.76,26.38,27.18
4.708920002,-3.05,-12.48,26.22,29.19
4.719144106,-3.68,-17.82,27.04,32.59
4.729452848,-4.8,-22.07,28.39,36.27
4.739390135,-7.48,-24.64,29.85,39.42
4.749420881,-9.87,-26.01,32.14,42.5
4.763664007,-11.38,-26.71,34.55,45.12
4.781669855,-12.42,-27.15,37.72,48.1
4.783119917,-12.5,-27.55,40.84,50.82
4.789148092,-12.64,-27.83,42.85,52.63
4.799166918,-13.59,-27.48,43.66,53.34
4.80906105,-14.62,-27.21,44.63,54.27
4.818547964,-15.56,-27.97,47.18,57.01
4.829429865,-15.94,-30.35,49.84,60.49
4.839390039,-14.44,-33.12,49.94,61.63
4.849354982,-10.46,-36.2,46.39,59.76
4.864042044,-4.92,-37.73,38.65,54.23
4.882627964,0.55,-36.96,29.92,47.55
4.884068012,4.26,-36.17,23.4,43.28
4.888563871,6.18,-36.05,15.69,39.79
4.898904085,10.59,-40.64,7.08,42.58
4.908875942,19.16,-52.31,-0.99,55.71
4.919074059,28.49,-64.8,-14.77,72.31
4.929219961,35.65,-73.3,-31.3,87.31
4.939463854,40.47,-76.95,-41.62,96.39
4.949740171,44.64,-76.39,-43.37,98.53
4.963271856,47.76,-73.98,-39.78,96.62
4.98070693,47.33,-71.65,-33.55,92.19
4.982172966,42.62,-69.23,-22.23,84.28
4.98861599,34.75,-66.85,-5.41,75.53
4.999122858,23.59,-64.73,15.84,70.69
5.009148836,8.22,-60.23,38.57,71.99
5.019134998,-7.3,-53.46,59.58,80.38
5.029198885,-17.54,-45.1,74.08,88.48
5.039525986,-22.2,-37.16,78,89.2
5.049422979,-22.97,-30.84,73.92,83.32
5.063506842,-20.9,-25.19,67.68,75.17
5.082010031,-18.51,-21.52,59.52,65.94
5.083459139,-16.25,-18.97,51.71,57.42
5.088835001,-13.68,-18.27,45.61,51
5.099123001,-12.08,-18.08,39.84,45.38
5.10885787,-11.62,-17.84,35,40.96
5.119112968,-11.96,-17.6,31.93,38.37
5.129214048,-12.31,-17.17,29.66,36.41
5.13934803,-12.43,-14.6,28.61,34.44
5.149408102,-12.47,-10.8,29.43,33.73
5.163058996,-11.79,-6.9,28.83,31.9
5.18197298,-10.9,-3.1,27.14,29.41
5.183420897,-11.52,-0.61,25.17,27.68
5.188467979,-13.45,2.94,23.25,27.02
5.199074984,-16.69,9.68,22.92,29.95
5.208888054,-20.42,16.6,22.62,34.7
5.219100952,-21.77,24.64,22.45,39.81
5.22910285,-21.47,33.47,24.29,46.59
5.23969698,-21.74,41.47,28.08,54.59
5.249465942,-21.61,48.52,34.26,63.2
5.263076067,-21.45,52.92,42.54,71.2
5.28216815,-20.42,55.73,51.44,78.54
5.283619165,-19.47,58.69,58.34,85.01
5.288768053,-21.93,60.33,61.36,88.8
5.299053907,-24.9,59.09,61.64,88.94
5.309077024,-25.99,54.48,61.24,85.98
5.319110155,-26.02,46.25,56.7,77.65
5.329148054,-22.63,35.41,47.77,63.62
5.339395046,-16.9,23.28,38.57,48.11
5.349434137,-11.87,12.61,30.92,35.43
5.363101959,-7.64,3.73,25.06,26.46
5.382313967,-4.74,-2.7,22.28,22.93
5.383774996,-3.24,-7.67,22.49,23.98
5.388455153,-2.31,-12.27,23.05,26.21
5.399204969,-1.14,-16.49,23,28.32
5.409280062,-0.76,-20.05,23.98,31.26
5.418913126,-2.52,-21.85,26.36,34.33
5.429186106,-4.47,-22.75,31,38.71
5.439100981,-7.28,-23,36.19,43.49
5.449370146,-10.69,-22.98,40.33,47.63
5.463047981,-13.58,-22.43,43.72,50.97
5.482141972,-15.36,-22.69,47.06,54.45
5.483579874,-16.52,-23.16,51.48,58.81
5.488631964,-17.18,-24.35,54.57,62.17
5.499236822,-16.38,-24.79,55.76,63.18
5.509129047,-13.97,-26,56.11,63.39
5.519112825,-10.59,-27.99,53.36,61.17
5.52900815,-7.37,-29.51,49.24,57.87
5.539484978,-5.58,-30.63,45.56,55.18
5.549520969,-5,-32.02,41.44,52.6
5.563117027,-3.3,-34.87,37.95,51.64
5.581165075,0.25,-40.19,33.66,52.42
5.582648993,4.69,-44.92,25.93,52.07
5.588847876,10.93,-51.41,14.91,54.63
5.599236012,19.59,-58.27,1.07,61.48
5.609204054,27.83,-66.45,-13.11,73.22
5.619005919,34.02,-74.43,-26.81,86.11
5.629022837,39.9,-77.74,-38.61,95.53
5.6394279,46.7,-79.32,-44.68,102.31
5.649435997,51.49,-79.31,-44.83,104.64
5.663242102,51.41,-77.24,-41.26,101.54
5.681270838,47.89,-74.6,-32.87,94.54
5.682730913,41.14,-71.51,-18.37,84.52
5.688940048,30.83,-67.68,1.31,74.38
5.699095011,17.25,-63.02,24.57,69.8
5.709131002,1.26,-57.15,47.56,74.36
5.719151974,-11.66,-49.1,67.7,84.43
5.729182959,-19.8,-40.9,80.59,92.51
5.740081072,-24.91,-33.64,82.72,92.7
5.749406099,-26.38,-27.42,77.9,86.69
5.763381958,-25.23,-23.24,71.36,79.17
5.782169104,-22.63,-21.3,63.12,70.35
5.783603907,-18.46,-20.82,54.47,61.16
5.789099932,-14.72,-22.02,46.05,53.12
5.799207926,-10.76,-23.58,39.59,47.31
5.809201956,-7.96,-24.85,36.65,44.99
5.819216967,-8.04,-25.27,36.16,44.84
5.82952714,-10.51,-24.39,36.11,44.82
5.839265108,-13.29,-22.43,36.64,44.96
5.849387884,-16.89,-18.87,37.45,45.2
5.863634825,-19.48,-14.03,37.53,44.55
5.882019997,-18.87,-9.46,37.39,42.93
5.883446932,-15.82,-6.02,35.61,39.42
5.889238119,-11.8,-2.3,32.69,34.83
5.899230957,-9.76,4.01,29.57,31.39
5.909193993,-10.54,13.68,29.34,34.04
5.919067144,-11.44,25.34,32.05,42.42
5.929388046,-11.53,36,34.88,51.43
5.939558983,-14.13,46.31,39.33,62.37
5.949413061,-17.88,55.65,45.86,74.29
5.963320017,-19.19,62.15,53.3,84.09
5.982219934,-18.3,64.95,58.8,89.5
5.983657122,-16.95,66.56,59.14,90.63
5.98890996,-15.43,66.87,56.5,88.89
5.999171972,-13.56,64.91,53.92,85.46
6.010154009,-9.91,59.47,51.39,79.22
6.018815041,-5.4,50.09,46.84,68.79
6.029145002,-1.97,38.63,39.68,55.41
6.039445162,-1.43,27.77,31.15,41.75
6.049619913,-3.26,18.9,25.12,31.6
6.062906027,-5.6,12.22,23.59,27.15
6.082345009,-7.17,6.19,23.27,25.12
6.08378911,-7.78,0,23.22,24.48
6.089002848,-8.62,-5.4,24.11,26.16
6.099146128,-8.93,-9.98,26.25,29.46
6.109253168,-9.04,-14.18,29.01,33.53
6.118962049,-9.79,-17.92,32.04,37.99
6.129232168,-10.79,-20.8,36.04,42.98
6.13946414,-12,-22.93,40.61,48.15
6.149381876,-13.18,-24.29,44.36,52.26
6.163282156,-13.67,-25.07,48,55.85
6.181864977,-14.44,-25.25,50.37,58.16
6.183315039,-15.66,-25.44,51.78,59.77
6.188662052,-16.67,-26.04,53.78,62.03
6.199416876,-16.06,-26.59,56.58,64.54
6.209278822,-13.59,-27.6,58.5,66.09
6.219302893,-10.67,-28,57.81,65.11
6.229043007,-7.17,-28.61,54.72,62.16
6.23941493,-4.66,-29.58,50.9,59.05
6.249199152,-2.77,-33.1,46.27,56.95
6.262825012,-0.56,-38.21,39.72,55.11
6.282104969,2.5,-40.26,31.53,51.19
6.283520937,8.12,-42.62,24.15,49.65
6.288594961,16.28,-48.54,15.9,53.6
6.299098015,23.99,-54.94,3.44,60.04
6.309149027,32.68,-63.84,-10.38,72.46
6.318838835,39.4,-72.03,-24.93,85.8
6.329087973,41.11,-76.2,-35.35,93.52
6.339465857,41.87,-78.55,-38.89,97.13
6.349571943,43.02,-78.59,-38.17,97.38
6.363085985,44.49,-77.43,-34.36,95.68
6.382267952,44.29,-76.06,-26.54,91.92
6.383695841,39.63,-74.23,-14.38,85.36
6.388693094,30.75,-71.76,2.18,78.1
6.399049044,19.02,-68.4,23.06,74.64
6.409191847,4.79,-64.01,47.05,79.58
6.419102907,-9.04,-58.16,68.8,90.54
6.429239035,-20.08,-51.07,82.76,99.3
6.439482927,-27.41,-43.72,83.52,98.17
6.449880838,-28.79,-38.09,80.98,94
6.463070154,-27.85,-33.82,76.21,87.9
6.481714964,-26.5,-29.45,69.75,80.21
6.483153105,-22.59,-26.07,62.65,71.51
6.488913059,-17.07,-24.45,56.36,63.76
6.499122858,-11.89,-24.16,49.19,56.07
6.509219885,-7.7,-24.34,43.49,50.42
6.518903971,-6.38,-24.35,40.98,48.09
6.529215097,-8.2,-23.83,40.08,47.34
6.539422989,-11.2,-20.73,41.23,47.48
6.549485922,-15.66,-14.78,42.77,47.88
6.563338041,-18.93,-8.1,42.52,47.24
6.582804918,-18.67,-1.97,40.54,44.67
6.584238052,-15.54,3.84,37.47,40.74
6.58871603,-11.51,8.26,33.93,36.76
6.599177122,-8.23,14.55,30,34.34
6.609222174,-7.46,21.77,28.31,36.48
6.618944883,-8.68,30.97,28.76,43.14
6.629184008,-11.37,41.3,30.7,52.7
6.639353991,-14.31,50.02,33.64,61.95
6.650063992,-17.02,56.75,39.65,71.29
6.662916899,-18.67,61.51,49.61,81.19
6.682661057,-17.96,64.6,59.18,89.43
6.684103012,-16.47,64.77,63.16,91.95
6.688712835,-13.92,62.92,61.4,89
6.699249983,-8.36,56.91,59.71,82.9
6.709191084,-3.86,48.56,58.04,75.77
6.71915102,-2.58,39.72,53,66.28
6.729142904,-3.13,30.39,45.73,54.99
6.739519835,-4.71,21.59,39.57,45.32
6.749336958,-7.06,14.16,34.75,38.18
6.763376951,-8.79,8.33,31.62,33.85
6.783238173,-8.94,2.74,30.65,32.04
6.784631014,-7.47,-3.24,30.48,31.54
6.788581133,-5.51,-9.6,30.02,31.99
6.799100161,-4.31,-15.04,29.56,33.44
6.809161901,-4.33,-19.19,29.98,35.85
6.819097996,-4.87,-22.29,31.11,38.57
6.829246044,-6.02,-24.37,32.62,41.16
6.839414835,-7.33,-25.29,33.77,42.82
6.849448919,-8.04,-25.44,35.52,44.42
6.863176107,-8.54,-25.07,38.4,46.64
6.882946968,-9.55,-24.91,41.18,49.06
6.884390116,-11.61,-24.53,44.51,52.13
6.888624907,-14.11,-24.47,47.63,55.37
6.899175882,-16.11,-25.07,49.97,58.18
6.909183025,-15.96,-25.97,52.38,60.6
6.919056177,-13.92,-27.18,54.32,62.31
6.929426908,-10.68,-29.96,53.84,62.53
6.939511061,-6.84,-33.6,49.38,60.11
6.94945097,-3.33,-37.11,41.58,55.83
6.963287115,-0.18,-40.12,33.25,52.1
6.983363867,2.7,-42.56,25.1,49.48
6.984814882,5.96,-44.09,16.81,47.56
6.988959074,10.39,-45.34,8.6,47.3
6.999268055,15.13,-48.94,1.47,51.24
7.009219885,19.29,-55.68,-5.44,59.17
7.01961112,24.34,-61.64,-13.63,67.65
7.029168844,30.25,-65.72,-23.56,76.08
7.039052963,35.7,-69.74,-30.84,84.19
7.049396038,40.38,-71.51,-34.37,89.02
7.063539028,43.59,-69.96,-34.07,89.19
7.082279921,42.94,-67.69,-29.47,85.4
7.083748102,38.75,-65.69,-19.62,78.75
7.088628054,32.53,-63.21,-5.02,71.26
7.099272013,23.8,-60.31,12.76,66.07
7.109256983,12.76,-56.52,33.78,67.07
7.119372129,0.8,-51.94,56.57,76.8
7.129192114,-11.39,-45.62,73.76,87.47
7.138965845,-20.67,-37.85,79.01,90.01
7.149531126,-24.98,-32.03,75.67,85.88
7.164089918,-25.88,-28.21,70.98,80.64
7.182281971,-25.15,-24.14,65.26,73.98
7.183727026,-23.1,-21.04,56.54,64.59
7.18854785,-19.84,-19.34,47.54,55.02
7.199151039,-15.04,-19.01,40.47,47.17
7.209354162,-10.34,-18.73,34.82,40.86
7.218793154,-7.45,-18.44,30.93,36.77
7.229090929,-6.4,-17.94,28.46,34.24
7.239465952,-6.33,-16.99,27.31,32.78
7.249294043,-7.72,-15.22,28.29,33.03
7.263319016,-11.03,-12.87,28.85,33.46
7.28344202,-14.49,-9.77,28.27,33.23
7.284914017,-17.54,-6.14,27.99,33.59
7.288554907,-20.34,-0.3,28.36,34.9
7.299188852,-22.79,7.94,28.56,37.39
7.308954,-24.75,17.43,27.77,41.07
7.319185019,-23.28,27.9,28.49,46.17
7.329009056,-19.76,37.39,30.06,51.88
7.339379072,-17.34,45.93,30.71,57.9
7.349394083,-16.33,53.55,33.78,65.38
7.363334894,-16.06,58.41,39.19,72.14
7.382714033,-15.23,60.77,47.49,78.61
7.38416791,-15.15,61.75,55.08,84.12
7.388549089,-17.79,62.04,58.69,87.23
7.399206877,-21.36,59.85,59.8,87.26
7.409299135,-22.39,53.9,59.17,83.11
7.419132948,-20.28,45.28,54.91,74
7.429676056,-16.07,35.17,47.24,61.04
7.439224958,-11.07,24.98,38.53,47.23
7.44967103,-7.32,16.04,31.04,35.69
7.463373899,-5.3,9.03,25.55,27.61
7.483733892,-4.18,3.5,23.36,23.98
7.48518014,-3.45,-1.88,23.81,24.13
7.488959074,-2.97,-7.95,24.93,26.33
7.49919796,-2.64,-13.84,25.63,29.24
7.50899291,-2.91,-18.54,26.33,32.33
7.519171953,-4.5,-21.68,27.35,35.18
7.52947998,-6.64,-23.04,28.89,37.54
7.539441824,-8.3,-23.84,31.78,40.58
7.549585104,-10.02,-23.96,36.1,44.47
7.563043833,-11.78,-23.29,40.63,48.29
7.583364964,-12.67,-22.6,45.06,51.97
7.584810972,-13.32,-22.48,48.68,55.24
7.589063883,-14.33,-22.85,51.09,57.77
7.599015951,-14.55,-23.77,52.34,59.29
7.609151125,-13.84,-24.18,52.66,59.57
7.619238138,-12.16,-25.3,52.53,59.55
7.629204035,-9.34,-27.23,50.37,58.01
7.639912844,-5.79,-29.77,45.9,55.01
7.649073839,-1.94,-32.66,39.11,50.99
7.662879944,2.63,-37.26,30.96,48.51
7.682026148,6.86,-42.04,23.11,48.46
7.683449984,11.9,-48.4,13.99,51.76
7.689039946,17.99,-55.56,4.25,58.55
7.699869871,24.52,-62.64,-4.49,67.41
7.709133863,28.77,-68.05,-14.82,75.35
7.718894958,31.19,-70.19,-25.56,80.94
7.729243994,35.34,-70.12,-31.22,84.5
7.739171028,40.4,-70.85,-32.43,87.77
7.749477148,43.13,-70.3,-31.69,88.35
7.763004065,42.35,-67.29,-27.63,84.17
7.783013105,39.1,-64.01,-18.16,77.17
7.784440041,33.52,-60.76,-4.38,69.53
7.788532972,25.35,-58.5,12.2,64.91
7.799782038,14.76,-56.22,32.53,66.6
7.809046984,1.34,-51.9,54.57,75.32
7.818953991,-11.71,-45.85,72.38,86.47
7.829071999,-19.99,-38.42,82.16,92.87
7.839442968,-24.09,-31.74,82,91.16
7.849374056,-25.91,-26.06,75.41,83.88
7.862757921,-25.42,-21.77,65.87,73.88
7.882723093,-22.38,-18.92,56.46,63.61
7.884145975,-18.02,-17.62,48.06,54.26
7.888581038,-13.24,-17.67,40.56,46.18
7.899122,-9.53,-17.93,34.96,40.42
7.909214973,-7.87,-17.78,31.42,36.94
7.918998957,-7.79,-16.59,30.04,35.18
7.929494143,-8.82,-14,30.11,34.35
7.939606905,-10.76,-10.56,30.32,33.86
7.949515104,-12.32,-6.08,30.23,33.2
7.96339798,-12.28,-0.16,29.89,32.31
7.983139992,-11.03,5.54,29.67,32.13
7.984563112,-11.48,13.18,28.38,33.33
7.988692045,-13.12,22.12,26.2,36.71
7.999907017,-14.63,31.66,25.09,42.96
8.009215117,-15.41,41.66,25.8,51.36
8.019079924,-15.88,50,26.99,58.99
8.029905081,-17,57.76,28.57,66.64
8.039306879,-16.84,62.78,33.61,73.17
8.048970938,-14.21,64.25,42.33,78.24
8.062976122,-11.4,64.4,49.07,81.76
8.083312988,-9.64,63.21,51.34,82
8.08472085,-8.96,59.67,51.92,79.6
8.088930845,-9.57,53.48,50.8,74.37
8.099513054,-11.13,45.89,47.31,66.84
8.109750986,-11.94,37.18,41.71,57.13
8.118996859,-10.81,27.59,34.96,45.82
8.128976107,-8.78,18.05,28.91,35.19
8.139274836,-6.92,9.93,25.11,27.87
8.149116993,-5.18,2.65,23.87,24.56
8.162760973,-4.23,-3.65,24.3,24.93
8.182595015,-4.15,-8.83,24.98,26.81
8.183997869,-3.93,-13.22,26.42,29.8
8.188868999,-4.13,-17.1,28.29,33.31
8.199498892,-4.85,-19.87,30.32,36.57
8.209897995,-6.33,-21.17,32.58,39.36
8.219187021,-8.32,-21.84,34.81,41.92
8.229186058,-9.62,-21.92,37.85,44.78
8.239416838,-10,-21.97,41.39,47.91
8.249446154,-10.18,-21.84,44.86,50.92
8.263222933,-10.23,-21.59,48.08,53.68
8.283638954,-10.75,-21.89,50.38,55.97
8.285037994,-12.01,-22.14,51.12,56.98
8.288685083,-13.09,-22.35,51.7,57.82
8.299073935,-11.89,-24.76,52.66,59.39
8.309922934,-8.46,-29.41,51.04,59.51
8.319216967,-4.44,-34.55,45.65,57.42
8.329228163,-1.19,-38.95,37.53,54.1
8.339154005,1.84,-42.72,28.12,51.17
8.350172043,5.63,-46.08,17.81,49.72
8.363495111,12.31,-52.72,7.07,54.59
8.382608175,20.84,-60.53,-4.87,64.2
8.384037018,29.19,-69.67,-16.39,77.29
8.388666868,35.97,-77.06,-27.97,89.52
8.399842978,40.87,-79.26,-38.23,97.02
8.409178972,45.64,-79.52,-42.3,100.97
8.419227839,48.48,-77.73,-40.34,100.09
8.429251909,47.01,-74.22,-33.9,94.16
8.440196991,42.23,-70.54,-21.7,85.03
8.449458838,35.75,-67,-2.4,75.97
8.463855028,27.35,-64.24,22.47,73.34
8.482405901,13.67,-58.82,45.97,75.89
8.483721018,-2.08,-50.6,65.28,82.62
8.488729,-12.66,-42.16,79.14,90.55
8.499272108,-16.06,-35.55,82.87,91.59
8.510017157,-17.64,-29.71,80.87,87.94
8.519623995,-19.36,-25.09,73.33,79.88
8.529383898,-20.17,-21.93,64.15,70.73
8.538995981,-19.84,-19.52,57.82,64.17
8.549028158,-17.81,-17.27,51.68,57.32
8.561897993,-14.84,-16.07,44.83,49.88
8.5830791,-12.84,-15.07,38.24,43.06
8.584481001,-11.15,-14.26,33.04,37.67
8.588988066,-9.22,-13.3,30.33,34.37
8.599362135,-8.4,-11.5,28.55,31.9
8.609186888,-8.71,-8.62,26.25,28.96
8.61905694,-8.91,-5.26,23.97,26.1
8.629281998,-7.41,-1.57,22.7,23.93
8.639310122,-6.28,2.96,21.99,23.05
8.649573088,-8.42,8.31,19.37,22.69
8.663233995,-12.55,15.23,16.8,25.91
8.683755159,-16.14,21.77,15.22,31.08
8.685206175,-18.42,27.41,15.67,36.55
8.688945055,-20.14,34.17,17.33,43.28
8.699340105,-21.72,40.89,19.47,50.22
8.70923996,-23.38,47.19,22.83,57.39
8.719241858,-23.79,51.33,29.31,63.71
8.729265928,-21.64,50.64,39.17,67.57
8.739294052,-19.21,48.92,49.49,72.19
8.74954915,-18.03,47.33,56.4,75.8
8.762609005,-20.35,45.23,61.56,79.05
8.783190012,-26.86,42.29,63.46,80.85
8.784621954,-30.81,38.42,60.05,77.66
8.788897038,-28.51,32.42,53.94,69.08
8.79975009,-21.84,25.52,46.17,57.09
8.810023069,-13.88,17.83,37.17,43.49
8.819166899,-7.14,10.88,29.56,32.29
8.829487085,-1.73,4,24.23,24.61
8.83912015,2.19,-2.43,21.32,21.56
8.850136042,3.98,-8.27,20.3,22.27
8.862036943,4.18,-13.18,19.42,23.83
8.883530855,3.41,-16.96,19.05,25.73
8.884614944,2.22,-20.19,19.55,28.19
8.888706923,0.5,-22.5,20.34,30.33
8.899312019,-1.45,-23.38,22.34,32.36
8.910225153,-4.08,-23.84,27.06,36.29
8.91900897,-8.59,-23.58,32.48,41.04
8.929463148,-13.62,-23.02,37.61,46.15
8.939012051,-16.45,-23.11,42.67,51.23
8.949437857,-16.82,-24.02,46.34,54.83
8.961997986,-15.83,-25.2,46.92,55.56
8.983874083,-13.85,-26.36,47.01,55.64
8.985336065,-12.27,-27.19,46.57,55.3
8.988955021,-10.84,-28.15,45.21,54.34
8.999241114,-8.94,-30.22,44.36,54.41
9.00949502,-6.44,-34.18,42.21,54.69
9.019204855,-2.81,-40.13,35.61,53.72
9.029514074,1.28,-44.86,27.89,52.83
9.039304972,5.97,-48.18,19.41,52.28
9.049493074,9.28,-49.01,10.22,50.91
9.062088966,13.27,-50.82,1.18,52.53
9.083928823,21.04,-56.91,-6.33,61
9.085472822,31.03,-66.68,-16.54,75.38
9.089092016,40.23,-76.15,-29.76,91.12
9.098932981,46.73,-80.26,-41.83,101.85
9.109437943,52.02,-80.33,-47.13,106.67
9.118993044,53.65,-77.81,-43.78,104.16
9.129381895,50.94,-74.13,-34.36,96.28
9.139155149,45.07,-70.54,-18.48,85.72
9.149420023,36.83,-68.15,5.05,77.62
9.162625074,23.57,-65.4,32.04,76.54
9.184268951,4.64,-60.33,56.88,83.04
9.185752153,-13.57,-53.08,76.01,93.69
9.189301014,-24.31,-44.21,83.55,97.6
9.199309111,-26.92,-37.19,82.15,94.1
9.209336996,-26.26,-30.71,78.78,88.53
9.219256163,-23.79,-24.83,69.21,77.28
9.229496002,-19.22,-21.23,59.17,65.73
9.239182949,-14.11,-19.92,50,55.64
9.249516964,-9.28,-20.06,41.91,47.38
9.262428045,-5.98,-20.53,36.51,42.31
9.283394098,-5.62,-20.42,33.73,39.82
9.284448862,-7.76,-19.82,31.6,38.1
9.288825035,-10.75,-17.32,31.49,37.51
9.298830032,-13.64,-12.64,33.04,37.91
9.309561014,-15.02,-7.02,33.51,37.38
9.319010973,-13.79,-0.28,33.33,36.07
9.329468012,-11.65,5.12,31.98,34.41
9.339223146,-11.4,11.25,28.69,32.85
9.349424124,-13.47,20.75,27.36,36.88
9.362040997,-15.22,30,28.33,43.97
9.384432077,-15.47,39.02,29.3,51.18
9.385558844,-16.26,47.08,31.18,58.76
9.388788939,-19.02,53.55,33.95,66.19
9.399322033,-22.96,57.29,38.85,72.92
9.409558058,-25.56,56.72,46.06,77.4
9.419144869,-26.48,56.87,52.16,81.58
9.429457903,-26.44,55.24,56.78,83.51
9.439173937,-29.01,52.13,60.01,84.61
9.449198961,-31.66,47.28,59.44,82.28
9.46194911,-30.68,39.72,56.13,75.29
9.482515097,-26.2,30.21,49.75,63.82
9.483602047,-19.01,19.94,41.4,49.72
9.48884511,-11.61,10.48,32.79,36.32
9.498859167,-5.24,2.62,25.26,25.93
9.509567022,-1.55,-2.77,21.85,22.07
9.519134045,-1.1,-7.08,22.26,23.38
9.52956605,-2.22,-11.02,23.89,26.4
9.539132833,-3.22,-15.44,25.37,29.87
9.549493074,-3.96,-19.9,26.5,33.37
9.562062979,-5.01,-23.23,27.42,36.28
9.582103968,-6.39,-25,28.75,38.63
9.583212137,-6.7,-26.73,31.06,41.52
9.58893609,-6.81,-27.55,34.18,44.42
9.598865986,-8.16,-27.68,36.08,46.2
9.609349966,-9.74,-27.14,37.67,47.43
9.61919713,-10.6,-26.76,40.04,49.31
9.629554033,-10.82,-27.24,42.89,51.94
9.639189005,-10.61,-28.58,45.29,54.59
9.649420023,-10.24,-29.66,46.87,56.4
9.66207099,-9.36,-31.02,47.72,57.68
9.683396101,-7.35,-32.78,45.43,56.5
9.684648037,-3.66,-33.57,40.52,52.74
9.689203024,0.77,-33.3,34.56,47.99
9.699337006,5.21,-33.99,27.58,44.08
9.709599972,8.81,-35.92,20.38,42.22
9.719552994,12.82,-39.84,13.34,43.92
9.729520082,18.75,-48.21,5.72,52.04
9.73921299,25.44,-58.56,-5.54,64.08
9.749372005,33.47,-65.89,-19.43,76.41
9.762212992,40.93,-70.62,-30.73,87.21
9.783537149,45.98,-72.72,-36.28,93.37
9.785006046,48.2,-71.98,-36.62,94.04
9.788891077,47.65,-69.28,-32.6,90.18
9.799104929,45.91,-65.13,-24.2,83.27
9.809556961,42.8,-61.76,-12.68,76.2
9.819317102,37.32,-59.38,0.91,70.13
9.829539061,29.67,-58.23,18.54,67.93
9.839020014,18.28,-56.14,39.7,71.14
9.849509954,4.13,-52.79,60.75,80.58
9.86265111,-8.88,-46.87,77.7,91.17
9.883491993,-18.23,-39.02,83.01,93.51
9.884971857,-22.37,-32.5,80.46,89.61
9.888930082,-22.54,-28.34,73.67,82.08
9.899520159,-21.14,-24.77,64.98,72.68
9.909976006,-18.58,-22.54,57.19,64.21
9.919183969,-14.56,-21.18,50.47,56.63
9.929610014,-10.05,-20.02,45.41,50.63
9.938967943,-6.54,-17.87,42.22,46.31
9.949674845,-5.14,-15.12,39.66,42.75
9.962126017,-5.8,-12.38,37.82,40.21
9.983512163,-7.48,-10.11,36.33,38.44
9.984772921,-9.56,-7.37,34.05,36.12
9.988960028,-10.39,-3.61,30.87,32.77
9.999398947,-9.04,1.19,29.29,30.67
10.00959516,-8.2,7.35,28.52,30.57
10.01920485,-8.23,14.11,26.33,30.98
10.02949405,-9.04,21.95,24.59,34.17
10.03907895,-11.04,30.18,24.5,40.4
10.04947686,-12.35,38.07,25.89,47.66
10.06215096,-12.65,45.97,27.69,55.13
10.08382106,-12.24,52.6,30.96,62.25
10.08533406,-11.96,57.99,35.63,69.1
10.08931899,-12.4,61.31,40.28,74.39
10.09945416,-12.05,60.49,42.74,75.03
10.10955,-11.5,59.5,45.22,75.61
10.11923289,-12.2,57.02,50.53,77.15
10.13014817,-15.41,52.7,53.78,76.85
10.13921809,-18.29,45.63,52.28,71.76
10.14956307,-18.58,36.61,47.52,62.79
10.161834,-16.34,27.2,40.85,51.72
10.18276405,-12.36,18.65,34.05,40.74
10.18384194,-8.46,11.93,29.34,32.78
10.18904996,-5.26,6.1,26.67,27.85
10.19903398,-2.21,0.12,25.33,25.42
10.20959687,0.12,-5.65,25.88,26.48
10.2192471,1.03,-11.23,26.58,28.87
10.22961116,0.4,-15.87,26.87,31.2
10.23942685,-1.2,-19.01,27.01,33.05
10.24951816,-2.57,-20.91,27.64,34.75
10.26204515,-3.62,-21.94,28.88,36.44
10.2831099,-4.4,-22.42,30.15,37.82
10.28417397,-4.48,-22.44,31.96,39.3
10.28878617,-4.74,-22.35,34.72,41.56
10.2989099,-6.49,-21.92,38.04,44.38
10.30946398,-9.3,-21.35,41.71,47.77
10.31926417,-12.09,-21.01,45.32,51.39
10.32936406,-12.98,-21.36,47.83,53.96
10.33914804,-11.6,-22.14,48.86,54.88
10.34949398,-9.49,-23.24,47.59,53.8
10.36209083,-6.94,-24.9,43.95,50.98
10.38221288,-4.41,-27.88,39.71,48.71
10.38327384,-1.2,-32.87,35.39,48.31
10.38878798,2.18,-39.52,28.6,48.83
10.399436,4.83,-45.61,20,50.03
10.40980196,8.31,-50.33,11.01,52.18
10.41920209,13.48,-54.94,1.21,56.58
10.4293201,20.37,-61.74,-10.23,65.81
10.43913007,27.02,-67.69,-21.99,76.12
10.44942117,32.08,-71.82,-31.24,84.63
10.46204901,36.55,-72.85,-36.82,89.43
10.48274493,39.94,-71.14,-38.36,90.15
10.48380113,40.66,-68.33,-35.27,86.98
10.48886395,38.56,-65.01,-27.11,80.3
10.49893785,34.12,-60.95,-15.1,71.46
10.50951195,28.13,-57.69,0.86,64.18
10.519274,20.82,-54.26,20.85,61.74
10.52962399,10.32,-49.63,42.32,66.03
10.53915596,-2.47,-43.42,61.73,75.51
10.54949212,-12.83,-34.15,76.82,85.04
10.56200194,-18.39,-25.53,82,87.82
10.58376813,-19.84,-20.21,76.87,81.92
10.58482003,-19.03,-17.43,67.74,72.48
10.58899188,-17.29,-16.11,57.94,62.57
10.59935403,-15,-15.31,47.97,52.54
10.60955691,-12.1,-14.99,39.33,43.79
10.61930585,-9.82,-15.19,32.22,36.94
10.62936091,-8.22,-15.14,27.35,32.32
10.63929486,-7.4,-14.9,25.13,30.13
10.64938712,-7.72,-13.92,24.38,29.11
10.66217017,-8.53,-12.06,24.2,28.35
10.6834209,-9.65,-9.7,23.97,27.6
10.68447614,-10.66,-6.19,22.8,25.91
10.68884492,-10.51,-0.94,22.06,24.45
10.69962716,-10.84,5.81,20.5,23.9
10.70966101,-12.88,15.41,18.74,27.46
10.71934915,-13.48,26.51,19.81,35.73
10.72954106,-11.86,36.36,22.31,44.27
10.7393949,-10.45,43.92,24.31,51.27
10.74942803,-10.64,50.26,26.48,57.79
10.76202512,-12.8,55.51,30.8,64.75
10.78345799,-16.91,59.08,35.56,70.99
10.78453398,-20.8,58.03,40.36,73.68
10.78890109,-23.77,55.65,44.23,74.95
10.79993987,-25.37,52.13,47.24,74.78
10.80941606,-24.78,47.02,48.48,71.93
10.81930709,-22.61,41.55,47.38,66.95
10.82954717,-18.83,35.29,44.02,59.47
10.83908916,-14.6,28.92,36.97,49.15
10.84948611,-10.14,23.16,29.17,38.6
10.86259389,-5.74,17.43,24.16,30.33
10.88425708,-2.44,11.59,21.4,24.45
10.88576913,-0.87,5.96,20.38,21.25
10.88891482,-0.57,0.38,20.86,20.87
10.89931798,-0.91,-5.42,22.09,22.76
10.909518,-2.26,-10.53,23.8,26.12
10.91928601,-4.72,-14.44,25.47,29.65
10.92950416,-7.07,-17.43,28.21,33.9
10.93927407,-9.92,-19.02,31.1,37.78
10.94938684,-12.42,-20.23,33.03,40.67
10.96204686,-13.06,-21.06,35.47,43.26
10.98368907,-12.41,-21.83,38.28,45.78
10.98518491,-11.71,-22.34,39.61,46.95
10.98891306,-11.1,-22.71,40.68,47.89
10.99924493,-11,-22.88,42.18,49.23
11.00975299,-11.92,-22.65,43.08,50.1
11.01926303,-12.35,-23.04,44.76,51.83
11.02948594,-11.4,-25.77,45.45,53.47
11.03906417,-8.93,-30.29,42.57,53
11.04981804,-5.08,-35.61,36.86,51.5
11.06369805,-0.51,-40.54,28.09,49.32
11.0852201,3.83,-44.03,17.91,47.68
11.08664203,7.76,-47.26,9.06,48.74
11.08938003,10.93,-51.22,2.3,52.42
11.09941006,14.88,-55.75,-5.73,57.98
11.10933089,21.54,-61.39,-13.79,66.5
11.11936593,30.07,-69.05,-23.84,78.99
11.12939095,36.81,-72.56,-33.94,88.15
11.13917089,41.84,-73.58,-38.75,93.09
11.14977908,43.63,-71.29,-39.07,92.26
11.16366696,41.11,-66.43,-34.33,85.33
11.18433213,35.87,-62.9,-22.54,75.83
11.18575501,28.96,-60.25,-5.08,67.04
11.18904495,20.65,-58.11,17.81,64.19
11.19912791,7.99,-55.56,41.73,69.94
11.20963883,-7.1,-49.2,61.98,79.45
11.21925282,-17.47,-41.54,77.67,89.79
11.22944903,-21.42,-34.34,82.83,92.18
11.23956394,-21.61,-27.31,80.19,87.42
11.2494781,-20.02,-22.66,71.16,77.31
11.26213002,-17.25,-18.71,60.16,65.32
11.28424501,-12.85,-16.06,51.31,55.27
11.285707,-8.87,-14.63,43.39,46.64
11.28883815,-6.27,-14.39,35.74,39.03
11.29940295,-5.31,-14.51,30.35,34.05
11.30932689,-5.63,-14.72,27.29,31.51
11.31932712,-6.92,-13.83,26.01,30.26
11.32964301,-8.04,-10.99,26.34,29.65
11.3392241,-8.56,-6.36,27.33,29.33
11.34926915,-7.94,-0.87,27.19,28.33
11.36301303,-7.14,4.05,25.88,27.15
11.38405704,-9.55,9.77,23.12,26.85
11.38553596,-13.44,16.25,20.82,29.63
11.38898683,-17.15,24.73,19.99,36.12
11.39937496,-19.66,33.1,21.57,44.12
11.40967703,-19.96,40.91,25.3,52.07
11.41929984,-19.07,47.12,29.01,58.52
11.42963815,-19.47,53.52,31.2,64.93
11.43926787,-21.83,59.12,32.33,70.83
11.44986796,-23.58,58.72,35.7,72.65
11.463588,-23.83,55.87,40.46,72.98
11.48481011,-24.04,52.94,44.53,73.23
11.4863441,-25.05,48.87,49.04,73.62
11.48926091,-26.73,43.7,50.9,72.21
11.4993031,-25.64,36.71,48.06,65.68
11.50907111,-21.57,28.79,41.89,55.21
11.51940608,-15.69,21.2,34.15,43.14
11.52937198,-9.12,14.43,27.62,32.46
11.53948712,-3.86,8.82,23.48,25.37
11.55007505,-0.93,3.81,21.63,21.98
11.5627749,0.78,-1.27,21.2,21.25
11.58378601,1.83,-6.75,21.64,22.74
11.58523917,1.6,-12.11,21.11,24.38
11.5892961,0.48,-16.2,19.92,25.68
11.5993979,-0.97,-18.74,19.52,27.07
11.60958314,-2.11,-20.12,21.09,29.22
11.61936116,-3.11,-20.71,24.86,32.5
11.62959194,-5.29,-20.75,29.38,36.35
11.63953304,-9.44,-20.14,33.89,40.53
11.650177,-13.34,-19.36,39.09,45.61
11.66323686,-15.49,-19.64,44.17,50.76
11.68475103,-16.06,-21.08,47.38,54.28
11.68622303,-15.32,-23.07,49.37,56.6
11.68937516,-13.62,-24.92,48.86,56.51
11.69933105,-11.28,-26.51,46.75,54.91
11.70903516,-8.16,-28.96,44.56,53.76
11.71939206,-3.57,-31.98,40.95,52.08
11.72956586,1.03,-35.3,34.15,49.12
11.73903394,4.88,-37.73,25.09,45.57
11.74981499,9.48,-39.62,15.08,43.43
11.76322699,16.05,-43.16,4.52,46.26
11.78357601,21.84,-50.27,-4.94,55.03
11.78502297,25.17,-57.23,-13.55,63.97
11.78897905,28.55,-64.72,-20.16,73.55
11.7994101,31.89,-70.14,-26.16,81.36
11.80954504,34.63,-71.11,-31.01,84.95
11.81940103,37.41,-70.27,-32.58,86.01
11.82958102,39.15,-68.34,-30.12,84.32
11.83913016,38.38,-66.03,-23.48,79.9
11.84976506,35.44,-63.36,-12.64,73.69
11.86324096,31.08,-60.44,0.99,67.97
11.88477111,24.76,-58.39,17.96,65.91
11.88630104,15.43,-54.28,38.38,68.24
11.88899684,3.81,-49.09,58.03,76.1
11.89934301,-6.56,-41.51,73.95,85.05
11.90907598,-14.49,-32.44,81.62,89.01
11.91919017,-20.37,-24.12,80.64,86.59
11.92965388,-22.7,-18.4,75.5,80.95
11.93934083,-21.45,-15.42,65.72,70.83
11.94982314,-17.82,-14.27,55.51,60.02
11.96272206,-12.77,-14.22,46.84,50.58
11.98373604,-8.66,-13.49,40.88,43.91
11.98518801,-7.48,-12.48,36.62,39.4
11.98901606,-7.9,-11.11,33.61,36.26
11.99934983,-7.88,-8.7,31.56,33.67
12.01019311,-7.73,-6.1,29.36,30.96
12.01937604,-8.06,-2.86,26.05,27.41
12.0293901,-8.94,2.28,22.66,24.46
12.03917289,-10.61,8.53,19.4,23.7
12.04934287,-12.36,16.13,16.86,26.4
12.06209683,-13.48,24.11,15.07,31.46
12.08387804,-13.93,30.63,13.71,36.33
12.08531904,-14.29,37.32,13.29,42.11
12.08927894,-16.21,43.05,14.51,48.23
12.09939003,-19.92,47.87,17.22,54.63
12.10966706,-24.21,52.93,22.54,62.41
12.11935592,-27.77,55.84,31.24,69.75
12.12971997,-28.94,55.98,42.22,75.85
12.13934302,-27.87,55.06,51.23,80.2
12.14953113,-26.16,52.02,56.28,80.98
12.16260004,-24.27,46.94,56.14,77.09
12.18426704,-21.81,40.29,52.59,69.74
12.18574595,-19.1,32.76,46.6,60.07
12.18916798,-15.89,25.72,38.64,49.06
12.19945788,-11.69,19.6,31.81,39.14
12.20947504,-7.32,14.02,27.31,31.55
12.21931005,-3.34,8.6,24.52,26.19
12.22959685,-0.1,3.37,24.13,24.36
12.23914313,1.92,-2.38,25.56,25.74
12.24981403,2.14,-8.07,26.52,27.8
12.26322603,1.14,-13.18,27.11,30.16
12.28500199,-0.64,-17.25,27.5,32.46
12.28649497,-2.45,-20.13,28.5,34.97
12.28944302,-3.93,-21.4,30.65,37.58
12.29878306,-5.09,-21.8,34.14,40.82
12.30916095,-6.31,-21.62,37.95,44.12
12.31942916,-7.84,-21.27,41.69,47.45
12.32958102,-10.05,-20.91,46.08,51.59
12.33934999,-12.44,-20.96,49.24,54.94
12.34934998,-13.12,-21.73,50.62,56.62
12.36272407,-11.67,-23.19,51.72,57.86
12.38399386,-9.21,-25.54,50.75,57.55
12.38546109,-5.79,-28.02,46.86,54.9
12.38904095,-2.56,-30.47,42.01,51.95
12.39941812,-0.12,-33.71,35.61,49.03
12.40961695,2.02,-37.63,28.39,47.18
12.41939998,3.87,-41.69,20.86,46.77
12.42950797,6.69,-46.67,12.66,48.81
12.43944907,11.29,-52.35,4.61,53.75
12.44980502,18.27,-63.31,-5.06,66.08
12.46360612,26.31,-74.98,-19.16,81.73
12.48503494,31.58,-80.01,-33.27,92.22
12.486444,34.67,-81.16,-40.77,97.21
12.48912311,37.27,-81.1,-40.6,98.05
12.49938416,39.61,-79.51,-35.34,95.6
12.50907397,39.03,-75.43,-27.9,89.39
12.51942992,35.75,-70.75,-16.15,80.89
12.52960801,30.5,-65.82,0.3,72.54
12.5392139,23.89,-60.35,21.33,68.32
12.55004191,15.17,-54.26,47.36,73.6
12.56250501,2.56,-46.91,70.72,84.9
12.584131,-10.08,-38.17,82.77,91.7
12.58564782,-18.72,-30.69,83.01,90.45
12.58909202,-23.46,-25.27,81.34,88.34
12.59935999,-24.71,-20.64,75.52,82.09
12.61020589,-23.37,-17.51,64.92,71.18
12.61935306,-20.4,-15.6,54.48,60.22
12.62981915,-16.55,-14.55,46.19,51.17
12.63913083,-12.1,-14.05,39.37,43.51
12.649719,-8.07,-13.5,34.9,38.28
12.66271305,-5.16,-12.81,31.91,34.77
12.68417192,-3.7,-12.28,28.9,31.61
12.68560696,-4.28,-11.62,25.53,28.37
12.68937397,-6.42,-10.09,22.86,25.79
12.69930005,-9.71,-6.14,21.88,24.71
12.7095921,-13.02,1.74,22.24,25.82
12.71935201,-15.2,11.29,22.92,29.72
12.72928691,-15.8,21.71,23.34,35.57
12.7399199,-14.48,31.78,23.95,42.34
12.74928689,-12.07,40.75,23.77,48.69
12.76213288,-11.3,47.79,23.65,54.5
12.78409505,-12.68,53.33,24.66,60.1
12.78518796,-14.46,56.89,27.79,64.94
12.78898215,-16.81,57.86,34.81,69.58
12.79886794,-21.33,57.71,43.02,75.07
12.80971003,-25.76,56.05,50.47,79.7
12.81946898,-28.92,52.76,55.07,81.56
12.82929683,-30.08,47.3,55.64,78.98
12.83910394,-28.16,40.57,52.49,72.07
12.849473,-24.29,33.29,47.07,62.56
12.86228395,-19.68,26.13,39.52,51.3
12.88422513,-14.61,19.2,31.2,39.44
12.88537288,-9.21,12.55,24.96,29.41
12.88905311,-4.04,5.98,21.13,22.32
12.89962196,-0.48,0.13,19.47,19.47
12.90905595,1.26,-5.01,19.82,20.48
12.91943288,1.79,-9.85,21.15,23.39
12.92952085,1.37,-14.34,22,26.29
12.93919301,0.62,-17.95,22.79,29.01
12.94982696,-0.61,-20.04,24.55,31.69
12.96302915,-2.09,-20.82,27.35,34.43
12.98484588,-3.69,-20.66,31.44,37.8
12.986305,-5.71,-20,36.99,42.43
12.98912597,-7.8,-19.24,42.14,46.97
12.99941182,-9.66,-19.19,45.92,50.69
13.00903916,-10.72,-19.8,47.81,52.84
13.01926684,-10.42,-21.23,48.49,53.94
13.03024602,-9.52,-22.47,48.63,54.4
13.03941298,-8.03,-23.81,49.29,55.32
13.04981399,-5.66,-26.91,48.99,56.18
13.06357694,-3.18,-30.91,45.59,55.17
13.08448005,0.14,-35.54,39.11,52.84
13.08593011,4.13,-40.9,30.35,51.09
13.08912206,6.79,-45.12,19.39,49.57
13.09941792,9.5,-49.18,8.49,50.8
13.10904503,15.46,-57.09,-0.39,59.14
13.11934209,24.11,-68.2,-9.7,72.98
13.12940192,32.08,-77.91,-23.65,87.51
13.13939095,37.79,-81.98,-36.68,97.43
13.15003705,41.87,-81.91,-43.87,101.91
13.16308618,44.45,-81.39,-43.83,102.57
13.18476605,44.07,-76.66,-37.62,96.09
13.18595815,41.02,-70.14,-25.63,85.2
13.18919683,37.33,-65.04,-8.3,75.44
13.19923997,32.02,-61.71,14.13,70.94
13.20949388,21.41,-57.56,38.53,72.49
13.21946406,5.52,-50.63,59.97,78.67
13.22965002,-9.1,-41.17,77.42,88.15
13.23912787,-17.61,-32.15,82.58,90.35
13.24934196,-20.21,-25.75,80.93,87.29
13.26223803,-19.17,-21.74,77.49,82.73
13.28463197,-17.66,-19.4,67.48,72.4
13.28610897,-15.5,-17.84,57.92,62.55
13.289222,-13.37,-16.9,49.31,53.81
13.29950786,-11.38,-16.37,41.57,46.1
13.30930996,-9.11,-15.95,36.35,40.72
13.31940103,-7.72,-14.81,31.92,36.02
13.32957602,-7.05,-12.68,28.27,31.77
13.33915591,-6.48,-9.97,26.31,28.87
13.34936309,-6.37,-6.88,24.61,26.33
13.36226702,-5.87,-2.59,22.7,23.58
13.382833,-5.25,2.34,20.77,21.55
13.3838861,-5.82,8.58,18.81,21.47
13.38888097,-6.59,17.03,17.71,25.43
13.39908814,-7.69,25.1,17.33,31.45
13.40959907,-8.66,32.21,17.22,37.53
13.41965413,-9.55,39.8,18.5,44.91
13.42960286,-12.51,45.34,21.78,51.83
13.43952584,-17.47,51.39,26.29,60.31
13.44952607,-22.05,57.03,31.61,68.83
13.46231389,-24.57,57.89,39.08,74.04
13.48453403,-24.94,56.71,47.43,78.02
13.48557997,-23.63,54.27,55.57,81.18
13.48899484,-23.94,50.65,61.37,83.09
13.49896002,-25.47,45.53,59.7,79.28
13.50959086,-23.71,38.55,53.06,69.73
13.51936984,-18.44,29.93,44.8,56.94
13.52967906,-11.95,21.64,34.94,42.8
13.53936005,-6.16,14.9,26.74,31.22
13.54959297,-1.85,9.8,22.8,24.88
13.56284785,1.5,4.95,21.7,22.3
13.58508301,4.03,0.03,21.9,22.26
13.58655,5.63,-5.53,22.39,23.74
13.58914495,5.97,-10.72,22.19,25.35
13.59941196,5.13,-14.93,21.81,26.92
13.60914302,3.13,-17.46,22.09,28.33
13.6194489,0.9,-18.9,24.66,31.08
13.62957788,-1.83,-19.15,28.82,34.65
13.639498,-5.12,-19.08,34,39.32
13.64977002,-8.01,-19.12,40.25,45.27
13.66284895,-10.14,-18.78,46.17,50.86
13.68483496,-11.01,-19.19,50.9,55.5
13.68592811,-11.24,-20.51,53.04,57.96
13.68919802,-10.78,-21.68,53.25,58.49
13.69893289,-9.72,-22.6,52.77,58.22
13.70939302,-8.08,-24.78,52.02,58.18
13.7195189,-5.76,-28.59,50.55,58.35
13.72971416,-2.88,-34.12,46.74,57.94
13.73940015,0.62,-41.01,39.61,57.01
13.74959898,3.99,-47.16,30.03,56.05
13.76276994,6.15,-48.93,18.84,52.79
13.78499913,9.08,-50.07,8.45,51.58
13.78646898,14.47,-54.04,-2.28,55.99
13.78981495,23.77,-62.16,-12.36,67.68
13.79952002,34.02,-74.17,-23.81,85
13.80934787,41.11,-81.56,-37.91,98.89
13.81953502,44.27,-81.64,-46.9,104.04
13.82965398,45.12,-81.5,-46.48,104.1
13.83918905,44.4,-78.9,-39.46,98.76
13.84958291,41.61,-74.91,-28.87,90.42
13.86372685,37.01,-71.73,-13.21,81.78
13.88516498,29.87,-68.28,9.79,75.16
13.88662314,18.08,-63.83,37.61,76.26
13.88910604,3.14,-56.27,63.62,84.99
13.89947915,-9.97,-46.45,81.34,94.19
13.90904212,-17.79,-38.24,83.34,93.4
13.91922784,-20.58,-31.92,81.68,90.07
13.92966199,-21.08,-26.85,80.48,87.42
13.93950391,-20.63,-22.6,74.13,80.19
13.94955397,-17.69,-20.12,63.61,69.02
13.96276593,-13.27,-19.27,53.6,58.48
13.98498607,-8.26,-18.71,44.17,48.67
13.98642612,-4.55,-17.04,38.21,42.08
13.98913789,-3.73,-14.74,36.2,39.26
13.99950194,-4.93,-12.22,35.31,37.68
14.00904012,-6.77,-10.33,33.29,35.5
14.01922011,-8.81,-8.33,30.78,33.08
14.029634,-10.65,-3.85,29.28,31.39
14.03914285,-11.58,3.69,30.24,32.59
14.04932594,-12.23,13.13,31.12,35.92
14.06255102,-13.82,22.77,27.61,38.36
14.08507204,-13.18,31.64,23,41.27
14.08656907,-10.21,40.06,22.22,46.93
14.08943486,-8.52,47.84,24.9,54.6
14.09943604,-7.97,53.52,28.29,61.05
14.10935187,-8.72,58.8,31.53,67.28
14.11949086,-10.79,61.68,37.31,72.88
14.12957406,-13.08,60.92,45.38,77.08
14.13942003,-15.76,59.71,51.77,80.58
14.14920783,-18.67,57.16,57.76,83.37
14.16226888,-20.53,52.3,60.68,82.69
14.18510699,-20.32,45.41,58.32,76.65
14.18618417,-17.64,37.41,51.89,66.35
14.18912387,-12.36,28.57,44.6,54.38
14.19949985,-6.76,20.43,36.44,42.31
14.20909095,-3.11,13.97,29.56,32.84
14.21951699,-1.01,8.6,26.23,27.62
14.23023605,0.05,3.43,26.17,26.39
14.23949099,0.55,-2.67,27.47,27.6
14.24935794,0.55,-9.78,27.89,29.56
14.26232409,-0.07,-16.01,27.34,31.68
14.28506303,-1.4,-20.48,27.67,34.45
14.28616309,-3.25,-22.99,29.12,37.24
14.28908706,-4.64,-24.35,31.3,39.92
14.29948115,-6.2,-24.93,34.54,43.04
14.30905986,-8.68,-24.92,39.42,47.43
14.31949115,-10.4,-25.15,45.26,52.81
14.32968116,-10.86,-25.72,49.85,57.13
14.33959603,-11.59,-25.78,51.38,58.64
14.34955907,-12.59,-25.29,51.11,58.39
14.36223292,-12.36,-25.18,51.02,58.22
14.38510799,-11.22,-25.53,50.41,57.6
14.38646817,-9.92,-26.64,48.06,55.83
14.38878798,-8.04,-30.11,43.86,53.8
14.39954495,-3.25,-38.14,38.37,54.19
14.40909314,5.55,-49.12,29.82,57.73
14.41924214,11.16,-53.65,16.35,57.18
14.42944002,13.89,-55.51,2.9,57.29
14.43950486,18.55,-61.56,-5.35,64.51
14.44965386,23.76,-69.71,-13.34,74.84
14.46289802,27,-74.35,-24.54,82.81
14.484936,31.52,-76.65,-33.99,89.57
14.48637605,36.56,-76.84,-38.82,93.53
14.48906898,39.89,-75.74,-39.15,94.13
14.49946284,40.19,-72.24,-35.13,89.82
14.50918317,37.81,-68.11,-26.03,82.13
14.51946998,33.27,-65,-11,73.84
14.52964616,26.63,-62.68,8.84,68.67
14.53962207,16.5,-60.92,30.83,70.24
14.54949689,2.95,-57.1,53.39,78.22
14.562289,-10.48,-51.2,74.65,91.12
14.58505702,-18.87,-43.2,83.14,95.57
14.58611989,-21.61,-35.81,81.35,91.47
14.58921099,-22.06,-29.05,80.23,88.13
14.59944987,-21.32,-23.72,75.01,81.5
14.6094501,-17.89,-20.07,63.49,68.94
14.61943102,-12.97,-17.37,53.64,57.85
14.629704,-7.29,-15.8,45.26,48.48
14.63953996,-3.3,-14.07,39.11,41.69
14.64954591,-2.79,-12.34,35.76,37.93
14.662256,-4.68,-10.99,33.71,35.76
14.68438315,-6.74,-9.39,31.41,33.46
14.68543983,-8.8,-6.99,29.04,31.13
14.68922901,-10.66,-2.1,27.43,29.5
14.69902205,-9.9,6.56,29.18,31.5
14.70939708,-7.79,14.08,30.32,34.32
14.71949792,-5.46,20.49,27.71,34.89
14.7296021,-3.84,26.37,24.91,36.47
14.73951983,-5.18,32.22,23.99,40.5
14.74941087,-8.07,39.16,24.66,46.97
14.76203609,-12.98,44.67,27.59,54.08
14.78591394,-20.76,51.35,30.6,63.27
14.7870729,-27.56,57.15,36.73,73.31
14.78867793,-30.07,59.03,47.45,81.48
14.79947901,-30.5,60.44,56.86,88.4
14.80960011,-29.26,60.4,62.56,91.74
14.81962705,-25.78,56.85,63.51,89.05
14.83037114,-21.59,50.32,59.6,80.93
14.83959413,-17.12,41.47,51.73,68.47
14.84949517,-11.88,31.32,42.01,53.73
14.86230803,-7.45,21.25,33.44,40.31
14.88589096,-4.38,12.16,27.2,30.11
14.88702798,-2.23,4.34,23.27,23.77
14.888726,-0.86,-2.6,21.69,21.86
14.89900303,-0.89,-8.52,21.82,23.44
14.9094131,-1.74,-13.45,22.53,26.29
14.91952109,-2.63,-17.62,23.79,29.72
14.92972112,-3.77,-20.15,25.75,32.91
14.93946004,-5.07,-21.21,29.22,36.46
14.94963503,-6.14,-21.57,34.49,41.14
14.96347213,-8.01,-21.79,39.24,45.59
14.98541808,-10.1,-21.74,42.02,48.37
14.98682284,-11.14,-21.65,44.2,50.46
14.98921394,-11.02,-21.98,45.79,51.97
14.99889898,-10.72,-22.96,46.4,52.86
15.00953603,-10.63,-24.06,46.63,53.53
15.01943398,-10.69,-24.82,47.16,54.35
15.02968597,-10.3,-26.27,47.44,55.19
15.03932309,-9.05,-29.8,46.32,55.81
15.04954195,-6.15,-35.28,42.29,55.41
15.06277704,-2.07,-41.32,33.39,53.16
15.08552694,2.62,-45.98,22.02,51.04
15.08691597,7.04,-49.02,11.07,50.74
15.08917999,10.02,-52,3.3,53.05
15.09895301,12.88,-58.77,-1.36,60.18
15.10972714,16.29,-64.08,-8.02,66.6
15.11935401,22.53,-68.93,-17.28,74.54
15.12965298,30.4,-74.15,-27.21,84.63
15.13973403,36.78,-76.58,-35.32,92
15.14960694,40.89,-76.29,-38.8,94.85
15.16374516,41.49,-73.09,-36.79,91.74
15.18561387,39.27,-69.46,-27.44,84.37
15.18722892,35.33,-66,-12.06,75.82
15.18899703,28.94,-63.3,7.55,70.01
15.19960713,18.66,-59.93,30.61,69.83
15.20952582,5.05,-54.3,56.02,78.18
15.21959615,-9.42,-45.7,77.26,90.25
15.22965407,-19.62,-33.98,82.39,91.25
15.23947406,-21.83,-25.25,80.64,87.27
15.24949193,-19.04,-20.73,78.11,83.02
15.26292801,-15.84,-18.76,67.29,71.62
15.28586888,-12.69,-18.01,57.82,61.87
15.28706908,-10.58,-18,50.43,54.58
15.28900313,-10.1,-17.67,43.24,47.79
15.29926896,-10.62,-16.66,37.75,42.6
15.30964899,-10.93,-15.55,33.82,38.79
15.31940007,-11.39,-13.66,30.92,35.67
15.32974792,-11.68,-10.85,28.79,32.9
15.339185,-10.12,-6.23,27.97,30.38
15.34948707,-7.48,-0.98,28.01,29
15.36219096,-6.19,5.61,26.86,28.12
15.38563609,-8.84,16.6,25.62,31.78
15.38706398,-12.3,27.07,24.51,38.53
15.38906217,-13.26,35.58,23.54,44.67
15.39999509,-13.26,43.2,22.7,50.57
15.40981603,-13.33,49.9,23.04,56.55
15.41950011,-14.52,56.28,25.1,63.31
15.42981315,-16.7,61.76,31.4,71.26
15.43963695,-19.09,63.66,41.04,78.11
15.44937491,-21.12,62.31,49.86,82.55
15.46228099,-23.8,58.74,57.26,85.41
15.48427892,-26.37,52.96,61.32,85.2
15.48534417,-26.67,45.32,59.63,79.5
15.48898005,-25.1,36.69,53.96,69.91
15.4993999,-21.43,27.74,46.19,57.98
15.50939107,-15.59,19.24,37.58,45
15.51942396,-9.78,11.96,30.2,33.92
15.52967405,-4.43,5.6,24.9,25.9
15.53946805,-0.53,0.37,22.42,22.42
15.54963398,1.48,-3.94,22.67,23.05
15.56230712,1.78,-8.51,23.73,25.27
15.58309102,1.21,-13.45,24.19,27.7
15.58417702,0.21,-17.54,24.32,29.98
15.58912587,-1.59,-20.24,25,32.2
15.59903693,-3.33,-21.46,26.12,33.96
15.60916495,-4.48,-21.65,27.94,35.62
15.61951995,-5.79,-21.77,31.97,39.1
15.629812,-8.49,-21.51,37.14,43.75
15.63961911,-11.89,-21.26,41.53,48.14
15.64940095,-14.02,-21.4,46.02,52.65
15.6624229,-14.98,-22.33,49.41,56.25
15.68479896,-14.51,-23.47,50.79,57.8
15.68586898,-12.97,-24.19,50.49,57.46
15.68918204,-11.17,-24.91,49.11,56.18
15.69902897,-8.5,-26.54,47.31,54.9
15.70928001,-4.78,-30.5,44.35,54.03
15.71966815,0.37,-36.84,38.77,53.48
15.72958398,5.16,-43.23,29.87,52.79
15.73979998,8.59,-48.31,18.18,52.32
15.75009513,12.1,-52.76,7.12,54.59
15.76232886,17.23,-60.73,-3.08,63.2
15.78442597,23.13,-70.43,-15.38,75.7
15.78554416,30.36,-79.04,-27.15,88.91
15.78909993,36.08,-81.79,-36.52,96.56
15.79910016,39.01,-81.57,-42.61,99.95
15.80917907,41.22,-81.21,-43.14,100.77
15.81901717,42.27,-76.95,-37.91,95.63
15.82931304,40.75,-72.06,-26.66,86.97
15.83934617,36.2,-68.18,-9.75,77.8
15.84956384,28.86,-64.88,13.06,72.2
15.86218905,16.28,-61.44,39.05,74.59
15.88541913,0.09,-54.59,63.78,83.95
15.88646913,-12.26,-45.19,82.12,94.53
15.88877106,-18.16,-34.96,83.2,92.05
15.89909101,-19.1,-26.54,81.68,87.98
15.90963292,-16.58,-20.88,80.26,84.57
15.91954017,-13.6,-17.57,71.81,75.16
15.92980313,-11.24,-15.75,59.83,62.88
15.93947291,-8.69,-15.75,49.65,52.8
15.94957304,-6.67,-16.25,41.69,45.23
15.96236491,-6.32,-16.7,35.78,39.98
15.98612595,-7.33,-15.89,31.71,36.21
15.98750401,-8.61,-13.73,30.44,34.48
15.98879313,-10.14,-9.99,30.36,33.53
15.99958491,-11.13,-4.57,29.69,32.03
16.00971293,-10.15,1.37,28.44,30.22
16.01954293,-8.52,6.95,26.34,28.54
16.02969193,-9.1,14.71,23.99,29.57
16.039572,-10.17,23.85,23.28,34.84
16.04947805,-10.52,34.29,25.46,43.98
16.06306601,-11.23,45.27,28.15,54.47
16.08589697,-12.56,53.38,27.87,61.51
16.08704114,-13.57,57.26,26.64,64.59
16.08913302,-15.78,59.23,27.73,67.27
16.09899783,-19.06,60.1,32.5,70.93
16.10972095,-22.26,58.7,39.81,74.33
16.1196301,-26.13,56.64,47.43,78.36
16.12980294,-29.99,52.83,53.13,80.7
16.13941789,-32.47,46.67,54.66,78.86
16.14936304,-31.6,38.86,51.15,71.58
16.16220999,-27.31,30.92,44.35,60.57
16.18564796,-20.57,23.09,36.24,47.64
16.18685985,-12.97,16.5,28.22,35.16
16.189224,-5.65,11.62,23.58,26.88
16.19944596,-0.58,7.36,23.57,24.69
16.20968413,1.65,2.36,24.92,25.08
16.21960282,2.4,-3.7,25.74,26.11
16.23051405,2.37,-10.07,26.45,28.4
16.23956895,1.42,-15.12,27.43,31.35
16.24959302,-0.04,-18.65,28.71,34.23
16.26216912,-1.59,-20.57,30.5,36.82
16.28585792,-3.19,-21.39,34.09,40.37
16.28695512,-5.01,-21.77,37.85,43.95
16.28908205,-6.64,-21.99,40.66,46.69
16.30008101,-8.08,-21.86,45.03,50.7
16.30949092,-11.17,-21.65,49.38,55.06
16.319592,-13.32,-21.69,52.24,58.11
16.32947302,-12.2,-22.85,55.06,60.84
16.3393681,-9.41,-24.84,56.2,62.16
16.34964395,-4.83,-28.14,53.21,60.38
16.36234689,1.14,-33.15,46.81,57.37
16.38610911,7.37,-39.35,37.9,55.12
16.38721585,11.63,-44.01,28.17,53.53
16.38886285,14.45,-46.76,17.58,52
16.39915895,17.71,-49.24,9.21,53.13
16.40970111,20.03,-53.05,2.37,56.75
16.41956902,20.63,-59.08,-5.33,62.8
16.42972684,22.68,-62.53,-12.82,67.74
16.43968797,27.57,-67.46,-18.93,75.29
16.44952297,32.77,-72.88,-28.42,84.81
16.46232796,37.71,-74.13,-38.67,91.72
16.48594403,41.92,-73.4,-43.11,94.88
16.48697305,43.94,-71.96,-39,92.89
16.48877788,43.05,-69.57,-28.16,86.52
16.49955106,38.58,-66.95,-12.83,78.32
16.50968599,30.71,-63.56,8.09,71.05
16.51952195,18.66,-59.39,33.98,70.92
16.52968717,4.06,-53.26,61.04,81.11
16.53963804,-9,-43.34,80.73,92.06
16.55006599,-17.42,-34.46,83.05,91.58
16.56290507,-21.04,-25.45,81.37,87.81
16.58607316,-20.11,-18.2,80.42,84.87
16.58747983,-16.65,-14.52,74.93,78.11
16.58908296,-12.03,-13.42,62.04,64.6
16.59965491,-7.52,-13.81,49.39,51.83
16.60965085,-3.68,-14.93,39.41,42.3
16.61953616,-2.03,-16.36,32.84,36.74
16.62974811,-3.53,-16.8,29.1,33.78
16.63958907,-6.31,-15.91,27.91,32.74
16.64958692,-8.02,-12.24,29.01,32.49
16.66232395,-7.93,-8.34,29.7,31.85
16.68617892,-5.35,-4.09,28.54,29.32
16.68726397,-2.41,-0.17,26.59,26.69
16.68917489,-3.46,4.73,23.96,24.66
16.69943094,-8.39,13.16,23.11,27.88
16.70964789,-13.53,23.23,25.87,37.3
16.71934295,-17.49,32.56,29.62,47.36
16.72970414,-20.18,42.6,32.69,57.36
16.73968291,-21.21,50.21,34.59,64.55
16.74948382,-20.69,55.32,34.39,68.34
16.76304102,-19.98,59.31,34.65,71.53
16.78622413,-19.77,58.1,38.19,72.28
16.78763199,-20.25,55.07,43.06,72.78
16.78918386,-22.81,52.53,47.23,74.23
16.79956794,-27.22,49.48,50.52,75.77
16.80972195,-28.9,44.41,51.52,73.9
16.81932187,-27.44,37.23,50.26,68.3
16.82955694,-24.95,29.41,45.61,59.73
16.83970404,-21.11,22.13,38.4,49.09
16.84956288,-15.35,15.1,32.53,39.01
16.86356497,-9.05,8.86,28.66,31.33
16.88609099,-3.49,3.32,25.49,25.94
16.88748503,-0.03,-1.59,24.24,24.29
16.88909793,1.67,-6.64,24.42,25.36
16.89942098,1.78,-11.87,25.06,27.78
16.90973401,0.53,-16.3,24.58,29.49
16.91927505,-0.89,-19.72,24.8,31.69
16.92975688,-2.4,-22.06,26.15,34.29
16.939574,-4.49,-22.71,27.99,36.32
16.949543,-6.78,-22.67,31.37,39.29
16.96301484,-9.05,-22.3,37.74,44.76
16.98658013,-10.93,-22.08,44.17,50.57
16.98778892,-12.1,-22.75,47.37,53.92
16.98913097,-12.16,-23.47,48.51,55.24
16.99953198,-10.96,-24.46,48.72,55.6
17.01038194,-8.92,-25.76,48.13,55.31
17.01952696,-6.65,-28.14,47,55.18
17.03045297,-4.62,-32.29,43.41,54.29
17.0398891,-1.79,-37.11,36.6,52.15
17.04972386,2.99,-43.38,28.18,51.81
17.06240582,8.77,-48.97,17.55,52.75
17.08453798,14.28,-52.03,3.98,54.1
17.08564591,19.43,-57.63,-7.77,61.31
17.08922982,23.7,-64.59,-17.32,70.94
17.09909415,24.62,-65.51,-23.11,73.7
17.10914111,26.39,-68.43,-25.19,77.54
17.11934805,29.91,-69.92,-28.35,81.16
17.12952399,34.32,-69,-31.51,83.25
17.13975,37.47,-67.81,-30.9,83.4
17.1496141,37.74,-66.04,-25.83,80.32
17.16227603,34.8,-63.13,-15.84,73.8
17.18325901,29.56,-60.48,-0.91,67.32
17.18434501,21.61,-58.57,18.65,65.15
17.18888593,10.44,-55.5,42.27,70.54
17.19910598,-2.9,-50.03,63.32,80.75
17.20937395,-14.1,-40.6,76.71,87.92
17.21973491,-19.71,-31.63,80.78,88.96
17.23032904,-20.7,-24.19,79.35,85.49
17.23982406,-18.92,-18.28,74.74,79.23
17.24964499,-15.4,-15.02,64.36,67.85
17.26244998,-10.49,-14.11,53.78,56.58
17.28508306,-6.74,-13.82,44.05,46.65
17.28611493,-6.16,-12.03,37.32,39.69
17.28886604,-7.66,-9.37,34.73,36.77
17.29908299,-8.62,-6.07,32.72,34.37
17.30970407,-8.6,-1.7,29.39,30.66
17.31956887,-7.76,3.92,26.21,27.61
17.32985616,-5.28,11.1,24.01,26.97
17.33960605,-2.39,17.68,22.25,28.51
17.34954286,-1.4,24.79,19.68,31.68
17.36231399,-1.59,31.6,17.92,36.36
17.38565612,-2.69,39.61,17.83,43.52
17.38667417,-5.79,46.09,18.92,50.15
17.38891482,-9.95,49.42,19.4,54.01
17.3996141,-13.87,50.57,19.88,56.07
17.40958095,-18.8,51.12,21.99,58.73
17.41961884,-23.66,51.62,28.25,63.42
17.42979884,-27.24,50.32,36.11,67.66
17.43970084,-30.59,47.45,42.22,70.49
17.44964695,-32.05,44.55,46.38,71.85
17.46229696,-30.73,40.56,47.48,69.59
17.48661304,-27.25,35.64,44.72,63.34
17.48767495,-22.62,29.93,40.09,54.9
17.48903584,-17.43,24.17,34.64,45.69
17.4991529,-11.94,18.37,29.52,36.76
17.50975394,-6.84,12.6,25.7,29.42
17.51960492,-2.63,6.74,23.49,24.57
17.53004289,0.38,0.48,22.46,22.46
17.53967309,1.97,-6.21,22.35,23.28
17.54970813,1.56,-11.8,22.92,25.82
17.56234503,-0.03,-16.14,23.75,28.71
17.58521605,-1.48,-19.32,25.07,31.68
17.58627009,-3.22,-20.83,27.33,34.51
17.58905482,-5.06,-20.72,31.26,37.84
17.59909296,-6.31,-20.53,36.14,42.04
17.6095221,-7.39,-20.34,40.99,46.35
17.61954188,-8.93,-19.84,43.88,48.97
17.62956786,-10.14,-19.97,45.43,50.65
17.63980412,-10.67,-20.24,47.31,52.55
17.64949489,-10.55,-20.6,49.14,54.31
17.66238284,-9.34,-21.53,49.4,54.69
17.68652987,-7.11,-23.41,48.37,54.2
17.68760395,-3.59,-27.41,45.26,53.03
17.68901396,0.48,-32.74,39.13,51.02
17.69918895,5.31,-38.78,30.77,49.78
17.70965791,8.61,-44.23,20.32,49.43
17.71966696,10.98,-47.35,10.64,49.75
17.729877,13.62,-52.38,4.11,54.27
17.73971915,15.9,-59.12,-2.88,61.28
17.74955201,20.19,-65.45,-12.64,69.64
17.76237702,27.27,-70.6,-23.51,79.25
17.7854979,34.56,-75.16,-32.87,89.01
17.78654003,40.09,-76.59,-38.87,94.78
17.78910995,43.13,-74.02,-39.26,94.23
17.79920506,42.88,-70.34,-33.43,88.9
17.80963802,39.79,-66.65,-22.97,80.95
17.819381,34.22,-63.77,-8.78,72.9
17.82982087,27.08,-62.23,10.09,68.61
17.83952308,17.16,-60.07,33.56,70.91
17.84937406,3.32,-55.87,56.25,79.35
17.86240888,-10.12,-49.99,74.53,90.31
17.88618016,-18.84,-42.43,82.64,94.78
17.88724113,-22.25,-35.75,81.25,91.51
17.88912106,-22.42,-29.16,79.81,87.87
17.89886594,-20.96,-23.61,72.47,79.04
17.90959597,-17.36,-19.68,62.25,67.55
17.91954207,-12.5,-17.29,53.44,57.54
17.92958617,-7.8,-16.68,44.47,48.13
17.93963695,-4.61,-17.08,38.07,41.97
17.94949794,-3.9,-16.47,34.88,38.76
17.963305,-4.91,-14.2,33.82,37
17.98604989,-6.17,-10.64,33.86,36.02
17.98708987,-7.8,-6.11,33.07,34.52
17.98914409,-7.9,0.01,30.99,31.98
17.999367,-6.37,6.77,29.09,30.53
18.00957298,-7.33,16,26.51,31.81
18.01961899,-10.04,26.85,25.5,38.36
18.02980208,-10.92,35.61,25.9,45.36
18.03962898,-10.29,42.08,26.15,50.6
18.0498569,-11.83,47.04,26.17,55.11
18.0623939,-16.58,51.48,27.93,60.87
18.086689,-23.42,56.29,32.5,69.08
18.08798194,-30.66,58.87,38.61,76.78
18.08910489,-34.69,56.93,46.27,81.15
18.10946393,-35.3,55.32,53.7,84.79
18.11077404,-32.89,51.61,58.21,84.46
18.11902905,-28.14,46.25,57.43,78.92
18.12982392,-22.42,39.75,53.36,70.21
18.13972497,-16.72,31.9,45.99,58.41
18.14952302,-10.91,23.92,36.01,44.58
18.16251588,-5.67,16.81,28.74,33.77
18.18492794,-1.93,10.82,24.34,26.7
18.18596387,0.52,5.41,21.95,22.61
18.18917584,1.86,0.1,21.85,21.92
18.19878316,2.3,-5.15,23.4,24.07
18.20974398,2.31,-10.47,24.71,26.93
18.21933103,1.49,-14.95,25.24,29.37
18.22950006,-0.37,-18.21,26.72,32.33
18.23947787,-2.52,-20.06,29.76,35.97
18.24959898,-4.3,-20.84,32.91,39.19
18.26249695,-5.88,-21.31,36.31,42.51
18.28639388,-7.94,-21.13,40.39,46.26
18.28752804,-9.79,-21.13,44.89,50.57
18.28904414,-11.58,-21.61,49.21,54.97
18.29889894,-12.7,-22.32,51.81,57.82
18.30960298,-11.7,-23.78,52.85,59.12
18.31950784,-9.49,-24.98,51.67,58.17
18.32931304,-6.48,-26.07,49.24,56.09
18.33977294,-2.83,-28.62,46,54.25
18.34968495,0.37,-33.14,40.79,52.55
18.36301994,3.53,-39.19,33.74,51.83
18.3861711,7.52,-46.76,24.82,53.47
18.38724804,13.09,-54.01,14.13,57.34
18.38871789,18.7,-62.85,3.07,65.64
18.39910698,23.28,-73.81,-11.47,78.23
18.40946603,27.21,-78.01,-26.72,86.83
18.4194591,32.61,-80.51,-36.8,94.33
18.42952609,38.21,-82.18,-42.34,100.03
18.43941283,42.92,-79.79,-43.46,100.48
18.44940209,45.35,-76.32,-38.12,96.61
18.46232104,43.71,-71.95,-27.44,88.54
18.48485112,38.73,-68.2,-12.86,79.47
18.48589492,31.42,-66.25,7.55,73.71
18.48893499,20.19,-64,34.09,75.27
18.49896407,4.06,-56.54,61.95,83.97
18.51006913,-11,-45.9,81.67,94.32
18.51933312,-18.96,-35.27,82.87,92.03
18.52977204,-19.69,-27.22,81.31,87.97
18.53964996,-17.7,-20.75,79.24,83.8
18.54936695,-14.22,-16.72,69.04,72.44
18.56243706,-10.27,-14.46,58,60.65
18.58323097,-7.15,-13.44,49.4,51.69
18.58428311,-5.94,-12.12,42.5,44.59
18.58915305,-5.79,-10.3,38.11,39.89
18.59916615,-5.74,-8.95,34.71,36.3
18.60915112,-5.4,-7.64,30.98,32.36
18.61968803,-3.87,-5.94,26.93,27.84
18.629565,-2.76,-1.75,24.96,25.17
18.63970208,-3.49,3.75,23.64,24.18
18.64967418,-6.13,11.99,23.82,27.36
18.66225886,-11.67,23.13,24.81,35.87
18.68504786,-18.32,33.79,24.21,45.42
18.686131,-21.7,42.72,21.54,52.53
18.68913293,-21.26,48.89,18.9,56.56
18.69913101,-20.38,52.3,17.76,58.87
18.70922208,-20.41,57,20.21,63.82
18.71965909,-22.71,62.12,27.07,71.46
18.72956491,-26.64,63.17,37.81,78.29
18.73969913,-31.12,60.07,45.24,81.38
18.74969506,-33.8,55.04,50.26,81.84
18.76273084,-36.29,47.75,54.59,81.09
18.78589892,-35.86,39.17,51.98,74.31
18.78694892,-30.66,30.13,45.86,62.85
18.78913713,-23.7,21.26,37.79,49.41
18.79922509,-15.83,13.76,29.04,35.82
18.80993915,-8.66,7.79,22.82,25.62
18.81912804,-3.08,3.05,19.87,20.33
18.82966495,0.52,-1.41,20.13,20.18
18.83977914,2.06,-6.53,21.61,22.66
18.84955716,2.52,-11.41,22.36,25.22
18.86220717,2.72,-15.54,22.2,27.23
18.88708901,2.53,-18.49,23,29.61
18.88862014,1.35,-19.06,26.19,32.41
18.88951802,-0.23,-18.85,31.31,36.54
18.90944886,-2.46,-18.23,36.22,40.62
18.91069603,-5.83,-17.35,39.51,43.54
18.9197619,-9.16,-16.78,43.42,47.44
18.92987394,-11.62,-16.86,49.38,53.45
18.93979287,-13.47,-17.61,55.5,59.76
18.94967484,-13.44,-19.42,57.98,62.6
18.96246004,-10.42,-22.22,55.98,61.12
18.98631096,-5.32,-26.08,48.89,55.66
18.98741508,1.42,-30.86,40.48,50.92
18.98894596,6.24,-36.96,31.12,48.71
19.00922418,7.96,-43.22,19.67,48.14
19.01018,9.3,-48.89,10.47,50.85
19.01961994,10.73,-53.42,3.81,54.62
19.03002286,8.63,-57.33,-3,58.05
19.03972983,8.23,-63.09,-10.75,64.52
19.04966283,13.05,-67.69,-18.59,71.39
19.06241107,19.99,-73.05,-26.31,80.17
19.08480406,24.59,-75.71,-32.41,85.94
19.08589602,27.41,-74.77,-36.47,87.58
19.08914399,30.67,-70.83,-35.83,85.09
19.098634,34.4,-66.79,-30.63,81.13
19.109308,34.48,-63.7,-23.3,76.08
19.11965108,30.55,-60.03,-12.63,68.53
19.12952018,23.95,-56.96,4.15,61.92
19.13949513,14.93,-53.68,27.82,62.27
19.14965606,2.63,-47.98,53.18,71.67
19.16257691,-10.2,-38.97,72.57,83
19.18656898,-18.83,-29.61,81.98,89.17
19.18761516,-22.96,-21.23,81.17,86.98
19.18921685,-24.64,-14.57,79.02,84.04
19.20916009,-23.73,-11.44,69.4,74.23
19.21047807,-19.35,-11.23,56.19,60.48
19.21911407,-12.97,-12.82,43.36,47.03
19.22967982,-7.08,-14.4,32.43,36.18
19.24049687,-3.18,-15.95,25.56,30.29
19.24964404,-1.95,-16.72,22.87,28.39
19.26256394,-2.99,-16.1,22.36,27.71
19.28447509,-5.09,-14.48,21.97,26.8
19.28549695,-7.95,-11.21,21.77,25.74
19.28898096,-11.2,-5.96,21.07,24.59
19.29932499,-12.86,1.34,20.51,24.24
19.30925393,-12.46,10.94,22.94,28.3
19.31967187,-11.76,23.64,25.59,36.76
19.32965207,-7.98,35.29,26.54,44.87
19.33917499,-3.58,45.91,28.46,54.13
19.34946895,-3.97,54.89,29.2,62.3
19.36272216,-6.98,61.6,29.22,68.53
19.38550305,-11.12,66.03,32.95,74.62
19.38655901,-17.71,67.05,40.81,80.46
19.38878989,-23.76,65.02,48.83,84.71
19.39920902,-27.1,59.46,54.3,84.96
19.40969896,-28.95,52.14,54.68,80.91
19.41970301,-28.02,43.99,50.96,72.91
19.43006682,-23.32,35.33,44.95,61.74
19.44042397,-17.27,27.19,37.67,49.56
19.44965196,-12.72,20.78,30.44,38.98
19.46241403,-9.78,15.29,25.5,31.29
19.4855001,-7.17,9.56,23.05,25.96
19.48653007,-4.48,3.73,22.21,22.96
19.48885608,-2.17,-2.84,22.15,22.43
19.49923396,-0.87,-9.24,22.1,23.96
19.50953197,-0.37,-14.62,21.88,26.31
19.519732,-0.42,-18.69,21.86,28.76
19.52978802,-1,-20.51,23.99,31.57
19.53971314,-2.03,-20.74,27.9,34.82
19.54988313,-3.3,-20.31,32.46,38.43
19.56242299,-5.73,-19.22,37.88,42.86
19.58667207,-8.83,-17.68,44.13,48.35
19.58774209,-11.05,-16.88,50.85,54.7
19.58909798,-12.51,-17.53,55.45,59.48
19.60904193,-11.64,-19.53,57.18,61.53
19.61014199,-8.59,-21.66,56.59,61.19
19.61944985,-5.59,-23.93,53.48,58.85
19.62955117,-3.26,-27.21,48.21,55.45
19.63969207,-1.41,-31.08,42.72,52.84
19.64961004,0.8,-35.32,37.54,51.54
19.66257215,3.16,-38.81,31.4,50.02
19.68561482,5.7,-42.5,22.99,48.65
19.68666911,8.86,-46.97,12.25,49.34
19.689219,13.75,-55.03,-0.32,56.72
19.69930506,19.1,-65.1,-12.2,68.93
19.709692,22.98,-75.66,-23,82.34
19.71971703,25.72,-80.86,-32.77,90.96
19.72975302,28.75,-81.16,-38.82,94.44
19.73986602,32.71,-81.15,-41.24,96.72
19.74973512,34.78,-80.65,-41.26,97.03
19.7622149,35.56,-76.92,-35.21,91.76
19.78640699,34.52,-72.06,-23.7,83.34
19.78751802,30.42,-67.89,-7.56,74.77
19.78885484,24.28,-63.74,15.49,69.94
19.80885386,14.47,-58.58,41.66,73.32
19.8097589,1.62,-50.97,64.49,82.21
19.81981683,-9.75,-41.69,80.03,90.76
19.82983398,-17.02,-33.6,83.17,91.3
19.83971906,-20.65,-25.35,81.59,87.89
19.84969902,-20.16,-19.47,77.22,82.14
19.86247206,-16.52,-17.02,65.85,69.99
19.88680696,-11.64,-16.76,55.4,59.03
19.88813615,-7.19,-17.97,46.18,50.07
19.88925195,-4.94,-18.94,39.81,44.36
19.908566,-5.48,-19.47,36.53,41.75
19.90997815,-7.46,-19.25,34.75,40.42
19.91940999,-9.6,-17.32,33.33,38.76
19.92975593,-12.07,-14.77,31.93,37.19
19.93974304,-14.63,-10.38,31.72,36.44
19.94967604,-15.36,-4.22,30.7,34.58
19.96251297,-13.89,3.06,28.61,31.95
19.9850409,-12.36,11.65,26.73,31.66
19.98608994,-11.8,22.97,24.93,35.89
19.98883605,-11.28,33.36,24.72,43.02
19.99934602,-10.83,42.63,25.65,50.91
20.00958395,-12.14,51.53,24.9,58.5
20.01984096,-14.08,57.61,21.82,63.19
20.02967906,-14.63,60.9,20.13,65.78
20.03970695,-14.6,61.17,21.74,66.53
20.04978204,-13.76,59.76,26.99,67
20.06257796,-12.37,56.98,34.6,67.8
20.08678889,-11.22,52.07,42.88,68.38
20.08805203,-11.24,46.45,48.59,68.15
20.08911586,-14.16,41.09,50.34,66.5
20.10901403,-18.36,35.71,48.16,62.7
20.11013389,-19.04,29.97,45.16,57.44
20.11946988,-16.96,24.11,40.84,50.36
20.12961507,-14.06,19.22,34.52,41.93
20.13950706,-9.34,14.26,28.95,33.59
20.14948297,-4.05,8.66,25.63,27.35
20.16252899,0.18,2.26,24.18,24.28
20.18587303,2.69,-4.71,23.34,23.96
20.18698382,3.58,-11.5,22.64,25.64
20.1892159,3,-16.37,21.93,27.53
20.19931912,1.66,-19.69,22.16,29.69
20.20956588,-0.03,-20.79,24.45,32.09
20.21958089,-1.96,-20.64,28.81,35.49
20.22952604,-4.07,-19.95,34.77,40.29
20.23975492,-6.81,-19.13,41.18,45.91
20.2496469,-9.4,-18.39,47.17,51.49
20.26255703,-10.78,-18.95,51.35,55.78
20.28681207,-10.83,-20.73,52.57,57.53
20.28811193,-9.6,-23.08,52.01,57.7
20.28923583,-7.17,-25.94,50.76,57.45
20.30894017,-4.9,-28.31,48.24,56.14
20.31020808,-3.29,-31.12,44.54,54.43
20.31944013,-1.78,-35.37,39.29,52.89
20.32976198,0.1,-40.13,31.93,51.28
20.33983302,2.4,-43.74,21.98,49.01
20.34910893,5.92,-46.36,10.18,47.83
20.36269212,11.76,-51.94,0.22,53.25
20.38632894,16.56,-59.76,-9.2,62.69
20.38740301,18.93,-63.15,-18.7,68.52
20.38877606,21.9,-66.39,-25.31,74.34
20.40932012,25.84,-70.7,-31.15,81.46
20.41055512,29.58,-72.44,-37.44,86.74
20.41957307,33.07,-71.51,-40.64,88.65
20.42955995,35.04,-68.33,-39.47,86.34
20.44035697,34.81,-64.82,-33.7,80.92
20.44961095,32.58,-61.07,-22.03,72.63
20.46249509,27.7,-58.54,-5.3,64.97
20.48541617,19.76,-56.72,15.07,61.92
20.48646903,8.57,-53.84,37.76,66.31
20.48887396,-3.36,-49.24,59.09,76.99
20.49930882,-13.19,-43.82,75.53,88.31
20.50922894,-18.82,-37.38,82.6,92.59
20.51959491,-19.9,-31.25,81.25,89.29
20.52951503,-19.19,-26.44,75.17,81.96
20.53980398,-16.61,-23.31,65.34,71.33
20.54946017,-12.2,-21.5,56.02,61.23
20.56263995,-8.27,-20.69,47.4,52.37
20.58641696,-5.48,-19.98,39.85,44.91
20.58747101,-3.64,-19.57,34.68,39.98
20.58917689,-3.33,-19.39,32.11,37.65
20.60778403,-5.14,-18.66,30.55,36.16
20.60906601,-7.92,-16.31,30,35.05
20.61964917,-10.99,-12.34,30.47,34.66
20.62975383,-12.92,-6.7,30.8,34.06
20.63962698,-12.02,1.21,30.56,32.86
20.64968395,-9.65,9.4,29.79,32.69
20.66265702,-7.97,18.19,28.32,34.58
20.68645597,-6.24,29.4,28.72,41.57
20.68751693,-4.15,39.13,31.35,50.31
20.689152,-4.91,47.21,32.22,57.36
20.70899892,-6.73,55.21,32.42,64.37
20.70996785,-8.74,61.52,35.11,71.37
20.71971917,-12.21,64.94,38.99,76.72
20.729702,-15.09,64.44,44.1,79.53
20.73986888,-16.3,62.41,51.01,82.23
20.74949193,-16.44,59.3,57.07,83.92
20.76259995,-15.01,54.04,59.13,81.49
20.78597808,-14.23,47.62,57.77,76.2
20.78706002,-13.41,39.7,52.6,67.25
20.789217,-10.91,31.07,45.47,56.14
20.80762506,-7.94,22.73,37.91,44.9
20.80891585,-4.68,15.14,30.62,34.47
20.81931496,-0.92,8.47,26.53,27.86
20.82957911,1.81,2.34,25.42,25.59
20.83980393,3.11,-4.05,25.34,25.84
20.84916997,3.25,-9.72,25.29,27.28
20.86255097,2.58,-14.3,25.68,29.5
20.88596416,1.38,-17.74,25.93,31.44
20.88703084,0.07,-20.02,27.01,33.62
20.88880301,-1.37,-21.05,29.73,36.45
20.90850401,-2.65,-21.88,32.88,39.58
20.90977883,-3.59,-22.28,36.36,42.79
20.91972399,-4.91,-22.13,41.17,46.99
20.92972803,-7.15,-21.72,47.12,52.37
20.93983197,-9.8,-22.02,51.62,56.96
20.94919086,-10.29,-22.96,54.59,60.1
20.96251416,-8.56,-25.04,56.16,62.08
20.98607516,-6.35,-27.2,54.85,61.55
20.98713517,-3.67,-30.26,51.12,59.51
20.98883104,-1.19,-34.12,45.37,56.78
21.00927901,1.01,-37.74,38.38,53.83
21.01022983,3.37,-41.36,30.38,51.42
21.01952291,6.43,-44.02,20.15,48.83
21.02968717,9.5,-45.33,8.25,47.04
21.03990698,14.13,-50.65,-1.35,52.6
21.04965091,18.36,-59.92,-10.63,63.56
21.06252789,20.63,-67,-21.59,73.35
21.08648992,22.5,-73.54,-30.36,82.68
21.08758616,25.45,-76.81,-36.66,88.83
21.08889508,29.96,-76.39,-41.14,91.79
21.10808301,34.34,-74.4,-42.45,92.28
21.10997796,36.06,-71.21,-39,88.83
21.11975598,35.54,-67.43,-28.79,81.47
21.129915,32.29,-63.6,-13.7,72.63
21.13977313,26.2,-60.22,4.58,65.83
21.14997697,17.94,-56.55,27.19,65.26
21.16259408,6.39,-51.47,52.98,74.14
21.18532395,-7.54,-43.67,74.28,86.49
21.18636394,-18.19,-33.48,83.09,91.4
21.18913388,-22.1,-24.52,81.69,88.1
21.19901013,-20.95,-18.59,79.61,84.39
21.20933509,-16.12,-15.49,69.86,73.34
21.21973014,-9.91,-14.71,58.59,61.21
21.22975183,-5.1,-15.03,48.79,51.3
21.23987103,-3.04,-14.83,41.18,43.87
21.24956203,-3.17,-14.51,36.92,39.79
21.26245713,-4.31,-13.77,33.59,36.55
21.28658891,-5,-12.3,30.53,33.29
21.28766418,-4.41,-9.71,28.45,30.38
21.28925896,-2.06,-5.88,27.52,28.21
21.30918002,0.77,-1.49,26.32,26.37
21.31010103,3.01,3.41,24.53,24.94
21.31915998,2.5,9.41,21.22,23.34
21.32982087,0.13,17.49,20.11,26.65
21.3398459,-2.62,27.31,22.39,35.41
21.34979415,-4.86,37.3,25.92,45.68
21.36254597,-7.01,47.46,29.51,56.32
21.38656211,-9.83,56.79,32.71,66.26
21.38770986,-10.92,63.48,34.09,72.87
21.38935208,-8.86,65.77,36.28,75.63
21.40965009,-6.57,64.32,38.95,75.48
21.41087413,-5.35,60.97,41.12,73.73
21.41954684,-6.49,57.61,43.49,72.47
21.42992091,-9.72,53.44,46.13,71.26
21.43970609,-12.69,47.23,47.48,68.16
21.4495461,-14.72,39.95,46.29,62.89
21.46272492,-17.33,32.75,43.25,56.95
21.48650002,-17.89,26.28,38.95,50.27
21.48755598,-14.73,19.62,34.88,42.64
21.48912787,-9.84,12.65,31.02,34.91
21.50839496,-4.86,5.89,27.71,28.74
21.50995183,-0.39,-0.23,26.32,26.32
21.51947284,2.59,-6.31,26.89,27.74
21.52985096,3.51,-12.15,27.11,29.91
21.53986096,2.76,-16.67,26.5,31.42
21.549716,1.49,-20.43,26.85,33.77
21.56254005,-0.45,-22.15,29.23,36.67
21.58576298,-2.18,-22.2,34.17,40.8
21.58682299,-3.03,-21.73,40.37,45.94
21.58903694,-4.49,-21.01,45.08,49.93
21.60899806,-7.44,-19.76,49.26,53.59
21.61028314,-10.48,-19.47,52.86,57.29
21.61917901,-12,-20.43,55.67,60.5
21.629565,-11.38,-21.89,56.57,61.71
21.63968587,-9.54,-23.4,55.58,61.05
21.64969993,-7.18,-26.34,51.88,58.62
21.66269803,-3.01,-31.46,45.76,55.61
21.68706489,3.81,-39.22,38.61,55.16
21.688586,9.32,-46.77,27.8,55.2
21.68976998,12.48,-51.96,14.73,55.43
21.70859599,15.57,-54.16,3.9,56.48
21.71008086,16.53,-57.43,-4.62,59.93
21.71958804,15.39,-61.08,-11.96,64.11
21.72971702,15.73,-60.46,-17.3,64.82
21.73981094,19.64,-63.02,-21.18,69.32
21.74997687,25.03,-67.93,-26.99,77.26
21.76262784,29.29,-69.67,-34.64,83.13
21.78687215,32.03,-69.09,-38.39,85.28
21.78810811,33.39,-67.11,-35.62,82.99
21.78919697,33.48,-64.57,-28.43,78.09
21.80790496,31.38,-62.43,-18.68,72.32
21.80926585,26.79,-60.33,-5.38,66.22
21.81976295,21.37,-58.99,13.06,64.08
21.82986712,13.64,-57.3,34.98,68.5
21.83968806,2.93,-52.04,56.82,77.1
21.84973216,-7.63,-44.75,73.12,86.06
21.86259794,-13.93,-37.57,81.51,90.82
21.88669395,-16.01,-32.1,81.37,88.92
21.88775301,-16.33,-27.86,78.08,84.49
21.88924098,-14.9,-25.6,69.24,75.3
21.90774512,-12.55,-24.24,59.57,65.52
21.90909886,-9.33,-22.82,50.82,56.48
21.91978717,-5.45,-21.6,43.52,48.89
21.92976999,-2.36,-19.75,38.56,43.38
21.93990588,-0.56,-17.94,35.68,39.94
21.94983602,-0.34,-15.5,35.2,38.46
21.96270704,-1.93,-12.85,35.41,37.71
21.98601604,-4.96,-10.37,35.26,37.08
21.98716903,-8.02,-6.71,34.11,35.67
21.98930097,-8.86,-0.48,32.73,33.91
22.007828,-8.29,7.77,32.7,34.61
22.00914311,-8.07,19.36,33.2,39.27
22.019207,-6.57,32.52,33.61,47.22
22.02988315,-4.8,42.26,33.08,53.88
22.04012203,-4.45,48.77,29.53,57.18
22.04952002,-6.93,55.16,27.33,61.94
22.06254005,-12.35,62.17,29.93,70.09
22.08659291,-18.46,65.96,38.12,78.38
22.08773017,-21.22,66.84,51.14,86.79
22.08900905,-19.11,67.25,65.86,96.04
22.10904288,-15.16,64.24,69.6,95.92
22.11034989,-12.58,58.54,68.94,91.31
22.11950183,-8.75,49.2,63.97,81.17
22.12965512,-2.71,37.19,53.83,65.48
22.13961291,1.39,26,41.81,49.25
22.14981794,1.82,17.01,31,35.4
22.16272283,0.71,9.71,24.34,26.21
22.18500686,-0.22,3.67,21.51,21.82
22.18672204,-1.22,-0.99,21.72,21.77
22.18885589,-1.34,-6.14,22.91,23.75
22.19917417,-0.41,-12.03,23.68,26.56
22.20978093,0.33,-16.94,23.65,29.09
22.22046995,0.07,-20.05,24.02,31.28
22.23000598,-0.71,-21.32,25.9,33.55
22.23988104,-1.04,-21.64,28.96,36.16
22.24970698,-1.94,-21.58,32.28,38.87
22.26258898,-3.64,-21.16,35.29,41.3
22.28594518,-5.75,-20.6,38.3,43.86
22.2870729,-8.35,-19.99,42.63,47.81
22.28899002,-11.2,-20.1,50.08,55.11
22.30779004,-13.25,-21.36,57.17,62.45
22.30912995,-12.48,-24.38,60.11,66.05
22.319314,-8.88,-27.69,56.17,63.25
22.32997894,-3.42,-30.49,48.05,57
22.339921,2.05,-33.07,39.8,51.78
22.34973407,4.27,-34.54,32.29,47.47
22.36230302,5.48,-36.92,25.21,45.04
22.38579488,8.17,-41.25,16.73,45.25
22.38688016,12.47,-47.66,7.13,49.77
22.38912106,15.89,-56.23,-2.85,58.5
22.40906787,18.33,-66.79,-13.12,70.49
22.41033483,19.77,-72.25,-24.35,78.76
22.41976094,21.53,-73.74,-32.29,83.32
22.4299109,26.1,-75.44,-33.74,86.66
22.44001889,30.64,-73.93,-34.12,86.99
22.44983602,33.82,-70.97,-33.61,85.49
22.46279502,35.63,-68.35,-29.01,82.35
22.485991,35.44,-65.33,-19.52,76.84
22.48706698,33.19,-62.48,-5.31,70.94
22.48905301,27.64,-58.91,11.3,66.04
22.50772405,18.68,-56.38,30.91,66.95
22.50900602,6.42,-52.36,52.9,74.7
22.51993704,-6.38,-45.92,72.97,86.45
22.52996302,-16.26,-37.87,81.98,91.75
22.53994489,-21.89,-30.47,80.51,88.82
22.54975486,-21.47,-25.69,78.54,85.37
22.56279016,-16.63,-23.06,70.72,76.22
22.58550715,-11.23,-20.76,60.85,65.26
22.5865581,-7.16,-18.98,50.97,54.85
22.58885407,-4.91,-17.53,42.31,46.06
22.59937406,-4.25,-16.56,37.01,40.76
22.60940504,-4.77,-14.85,34.2,37.58
22.61950803,-5.79,-13.04,31.89,34.93
22.62984586,-6.88,-10.97,29.58,32.29
22.63985896,-6.45,-7.23,28.22,29.83
22.64972901,-5.15,-2.48,27.63,28.21
22.66259503,-4.79,3.83,27.14,27.82
22.6865871,-6.01,13.94,27.44,31.35
22.68769193,-7.75,25.41,27.97,38.57
22.68892694,-9.88,36.69,29.67,48.2
22.70717597,-13.17,48.87,30.42,59.05
22.70936799,-14.88,58.57,30.72,67.79
22.71924996,-14.27,62.67,32.56,72.05
22.72985101,-11.35,63.86,36.88,74.61
22.73976016,-7.17,63.74,43.71,77.61
22.74976206,-5.04,61.28,51.04,79.91
22.76271105,-6.68,57.55,56.07,80.62
22.78593516,-10.61,52.75,58,79.11
22.78701186,-14,45.7,58.91,75.86
22.78906298,-14.88,37.16,55.84,68.7
22.80835795,-13.86,28.28,49.13,58.35
22.80995202,-12.4,20.48,41.22,47.66
22.81928802,-10.26,14.06,33.75,37.97
22.82987499,-8.18,8.7,27.79,30.24
22.83990788,-6.35,4.11,23.83,25
22.84985399,-3.82,-0.49,22.1,22.43
22.86267209,-0.94,-5.62,22.7,23.4
22.88399911,0.94,-11.07,24.1,26.53
22.8850491,1.28,-16.06,24.08,28.97
22.88927603,0.96,-19.74,23.87,30.98
22.89915395,0.46,-21.86,25.48,33.57
22.91014791,-0.52,-22.36,29.45,36.98
22.9197371,-2.33,-21.6,35.47,41.59
22.92965198,-5.61,-20.8,41.7,46.93
22.93991399,-9.42,-20.16,46.19,51.27
22.94983888,-11.7,-20.22,50.33,55.48
22.96279788,-12,-22,54.78,60.23
22.98330092,-11.04,-24.58,57.28,63.3
22.98506093,-8.83,-26.89,56.73,63.39
22.98949003,-5.45,-29.94,53.07,61.17
22.99910712,-1.01,-34.02,47.08,58.09
23.00946593,3.51,-38.7,39.23,55.21
23.0201571,5.92,-42.03,29.94,51.94
23.02986002,6.94,-42.44,20.68,47.71
23.04013705,9.05,-42.94,12.54,45.63
23.04963613,11.9,-47.84,4.44,49.49
23.06264997,15.32,-59.2,-5.54,61.4
23.08577085,17.95,-66.9,-15.85,71.05
23.08687091,18.59,-71.67,-22.61,77.41
23.08910489,19.78,-76.03,-26.91,83.04
23.10676503,22.95,-77.3,-28.82,85.63
23.10893512,26.7,-75.76,-29.48,85.56
23.11964798,29.74,-71.76,-27.17,82.29
23.12992501,31.45,-66.92,-21.52,77
23.13993192,31.39,-61.49,-12.3,70.12
23.14988112,29.3,-56,-0.64,63.2
23.16261196,24.89,-50.89,12.69,58.05
23.18494296,19.32,-46.63,30.44,58.94
23.18673587,11.02,-42.39,49.94,66.42
23.18901992,0.2,-37.31,65.33,75.23
23.19924808,-9.96,-31,76.92,83.52
23.20951605,-16.95,-25.26,80.89,86.42
23.22000599,-19.28,-20.78,79.39,84.29
23.22985387,-18.6,-17.56,74.86,79.1
23.23998094,-17.12,-15.47,65.9,69.82
23.24980712,-15.5,-13.62,57.16,60.77
23.26263499,-13.8,-12.16,48.49,51.86
23.28598905,-11.9,-11.02,40.39,43.52
23.28788805,-9.45,-11.02,33.89,36.86
23.28918695,-8.01,-11.12,28.39,31.52
23.30838299,-8.58,-10.47,24.07,27.61
23.30973196,-9.84,-9.22,21.9,25.71
23.31983209,-10.87,-6.32,21.87,25.22
23.329916,-11.12,-0.64,22.07,24.72
23.33995295,-9.94,7.63,22.19,25.48
23.34963393,-9.14,18.13,22.29,30.15
23.36273003,-6.9,27.34,22.19,35.88
23.38672495,-4.5,35.58,22.9,42.55
23.38881516,-5.72,43.59,23.68,49.93
23.38975883,-9.39,51.74,24.97,58.21
23.3990829,-13.72,60.26,31.96,69.57
23.41006303,-18.85,67.14,45.47,83.25
23.41974187,-21.27,71.86,60.23,96.14
23.42993712,-18.44,72.52,69.28,101.97
23.43993306,-12.88,68.03,69.19,97.88
23.44986987,-5.92,58.95,65.35,88.2
23.46291804,1.07,47.52,54.19,72.08
23.48486686,5.23,36.7,43.81,57.38
23.486655,5.12,28.28,35.96,46.03
23.48894906,2.12,21.67,31.39,38.2
23.49944091,-0.84,15.63,29.2,33.13
23.50946593,-2.29,9.9,27.94,29.73
23.51968312,-2.16,3.76,27.94,28.27
23.52982306,-0.91,-2.84,28.68,28.83
23.53998017,0.41,-9.34,29.24,30.69
23.54987001,1.19,-15.23,30.51,34.12
23.56254983,0.82,-19.63,31.69,37.28
23.58355689,-0.13,-22.64,32.1,39.28
23.58465004,-0.97,-23.86,34.08,41.61
23.58900809,-2.3,-24.03,38.08,45.08
23.59916902,-4.14,-23.55,42.75,48.98
23.60944486,-6.16,-22.81,47.92,53.42
23.61980295,-8.69,-22.22,51.88,57.1
23.62973595,-10.57,-22.82,55.69,61.1
23.64004207,-10.37,-24.82,59.41,65.21
23.64984298,-8.72,-26.75,59.38,65.7
23.66270185,-6.84,-28.23,55.56,62.69
23.68592501,-4.45,-30.09,49.55,58.14
23.68766999,-1.98,-31.4,43.67,53.82
23.688972,0.26,-34.07,38.23,51.2
23.70891309,3.23,-38.86,30.59,49.56
23.7097671,8.09,-43.76,20.93,49.17
23.71984982,11.96,-48.59,10.93,51.22
23.73014188,14.67,-55.73,2.11,57.66
23.73995495,17.62,-62.01,-5.43,64.69
23.74991107,19.48,-67.93,-13.01,71.85
23.762676,20.36,-71.55,-18.87,76.74
23.78509593,24.56,-74.38,-21.62,81.25
23.78709698,31.79,-77.03,-24.32,86.8
23.78940105,38.45,-76.82,-27.24,90.12
23.79906583,42.37,-75.18,-26.81,90.36
23.80945992,43.29,-72.3,-20.53,86.73
23.81983304,39.95,-68.84,-9.8,80.19
23.82977891,32.77,-64.9,5.41,72.9
23.83992696,25,-61.64,27.02,71.79
23.84991717,16.14,-58.59,55.93,82.59
23.86262107,2.23,-51.14,80.6,95.48
23.88618684,-13.04,-41.34,83.37,93.96
23.88793683,-23.48,-31.97,81.48,90.62
23.88927484,-25.81,-25.66,80.51,88.35
23.90819716,-22.05,-22.71,78.24,84.4
23.9100821,-17.02,-21.5,66.88,72.28
23.91931891,-11.71,-22.08,54.22,59.7
23.92996001,-7.93,-23.25,46.76,52.81
23.93998599,-7.5,-24.2,43.73,50.53
23.9498961,-9.24,-23.72,44.37,51.15
23.96300006,-10.6,-20.79,45.76,51.36
23.98661399,-12.1,-15.76,46.19,50.28
23.989187,-11.91,-8.65,46.47,48.74
23.99007201,-9.16,0.08,46.41,47.3
24.00816202,-5.43,10.89,44.57,46.2
24.00954509,-1.96,23.15,40.94,47.07
24.01983285,-0.97,34.76,35.37,49.6
24.02993703,-4.17,46.61,30.07,55.62
24.03999305,-10.68,58.11,26.42,64.72
24.0498879,-15.68,67.24,26.01,73.78
24.06287217,-17.63,73.84,29.68,81.51
24.08686614,-15.55,77.15,36.98,86.95
24.08925605,-10.92,77.12,44.05,89.48
24.09014487,-6.9,74.62,50.42,90.32
24.10798907,-3.49,65.51,55.85,86.15
24.10983896,-1.54,53.89,59.23,80.09
24.11964297,-3.63,42.83,59.19,73.15
24.129843,-9.31,32.79,55.81,65.39
24.14005399,-14.3,24.09,51.48,58.6
24.14985585,-16.28,16.62,47.25,52.66
24.16269612,-15.74,10.68,42.5,46.56
24.18656707,-13.31,5.3,38,40.61
24.18871999,-10.23,0.79,34.14,35.64
24.18984103,-6.2,-3.44,32.06,32.83
24.20802283,-1.98,-8.19,31.56,32.66
24.20983601,0.83,-13.14,31.74,34.36
24.21927404,2.35,-17.98,31.73,36.54
24.23007202,2.93,-21.65,30.85,37.8
24.24066496,2.47,-23.71,30.02,38.33
24.24973798,1.49,-24.57,29.94,38.75
24.26277399,0.03,-24.77,31.57,40.12
24.28580904,-2.29,-24.6,35.29,43.07
24.28692508,-4.11,-24.08,41.08,47.79
24.289397,-5.73,-23.35,46.6,52.43
24.30806398,-7.74,-22.27,49.94,55.22
24.3095901,-8.94,-21.64,51.04,56.15
24.31976199,-8.6,-21.9,50.27,55.5
24.33015084,-7.8,-22.57,47.52,53.18
24.33999085,-7.17,-23.8,44.09,50.61
24.34989595,-5.53,-26.14,41.27,49.16
24.36271,-1.22,-30.91,38.16,49.12
24.38650298,4.25,-37.32,31.91,49.28
24.38879085,7.74,-41.54,22.38,47.81
24.38966894,9.54,-41.48,12.74,44.42
24.405972,12.63,-41.19,4.81,43.35
24.409343,13.93,-42.65,-2.1,44.91
24.41960502,14.67,-47.4,-7.5,50.18
24.43001604,19.11,-55.6,-10.7,59.75
24.44053102,24.49,-63.65,-14.43,69.7
24.44995284,28.89,-69.48,-19.73,77.79
24.46307683,32.33,-73.06,-25.26,83.79
24.48590493,34.36,-73.09,-27.93,85.45
24.48805594,35.55,-69.94,-27.14,83.01
24.48934197,36.39,-66.61,-23.04,79.32
24.50728011,34.68,-63.56,-15.72,74.09
24.50927711,29.93,-60.19,-2.95,67.28
24.51978087,23.91,-56.82,16.63,63.84
24.52986598,15.95,-54.26,40.08,69.31
24.54068017,4.39,-50.05,61.41,79.34
24.54960704,-7.53,-43.96,78.06,89.9
24.5626719,-16.34,-37.93,83.51,93.16
24.58562398,-20.46,-32.58,81.89,90.47
24.58737683,-21.18,-28.54,80.79,88.26
24.589257,-20.48,-25,76.55,83.09
24.60592103,-18.48,-22.91,67.79,73.9
24.6092279,-14.79,-22.05,59.51,65.16
24.61983395,-9.95,-21.68,50.62,55.95
24.62984204,-6.27,-21.26,43.53,48.84
24.64000702,-4.64,-20.43,39.79,44.96
24.64987803,-4.28,-18.31,38.41,42.76
24.6628859,-4.79,-15.66,37.01,40.47
24.68593907,-4.72,-12.89,35.96,38.49
24.68769288,-4.63,-8.24,36.13,37.34
24.68929315,-5.53,-0.57,36.96,37.37
24.70538306,-4.98,10.23,38.21,39.86
24.709198,-4.07,24.66,39.83,47.02
24.71956801,-3.85,38.73,39.1,55.16
24.73019695,-3.95,50.84,36,62.42
24.73999906,-7.52,62.54,33.58,71.38
24.75006104,-10.38,71.89,35.9,81.02
24.762712,-8.87,76.92,40.71,87.47
24.78604698,-4.85,77.1,44.3,89.05
24.78798795,-1.07,76.16,46.73,89.35
24.78932691,3.59,70.61,49.75,86.45
24.80656004,8.06,61.15,53.81,81.85
24.80950713,9.24,51.12,56.17,76.5
24.81970096,7.05,41.32,54.64,68.86
24.83000588,2.69,32.28,50.59,60.07
24.83988595,-1.42,24.09,45.67,51.65
24.84984517,-4.54,17.06,40.85,44.5
24.86281085,-6.23,11.8,36.24,38.61
24.88610005,-5.87,7.5,32.89,34.24
24.8878119,-3.42,2.56,31.52,31.8
24.88943791,-0.27,-3.06,30.72,30.87
24.90739894,2.51,-9.3,30.31,31.8
24.9095881,4.22,-15.23,29.42,33.39
24.91939187,4.55,-19.77,28.16,34.7
24.92999816,3.52,-22.34,27.36,35.49
24.94066882,1.7,-23.39,28.24,36.7
24.94973898,-1.04,-23.04,30.96,38.6
24.96277905,-4.63,-21.9,35.59,42.04
24.98525691,-7.62,-20.14,43.06,48.14
24.98702216,-8.97,-20.06,50.96,55.49
24.98911691,-9.37,-20.92,55.48,60.02
25.00768209,-9.76,-21.76,56.61,61.42
25.0093801,-9.44,-22.83,55.94,61.15
25.01946807,-8.06,-25.22,54.12,60.24
25.02983689,-6.83,-28.44,50.59,58.43
25.04004884,-5.74,-32.63,45.56,56.33
25.04994988,-3.09,-37.99,39.93,55.2
25.06290197,1.13,-43.9,32.92,54.88
25.0863111,3.43,-46.46,22.45,51.71
25.08801389,6.39,-47.1,11.28,48.85
25.08931994,10.59,-49.16,2.14,50.33
25.1059339,12.86,-52.83,-5.57,54.65
25.10950899,14,-58.22,-11.59,60.99
25.12047982,15.54,-61.26,-16.19,65.24
25.12949109,18.32,-63.46,-20.17,69.06
25.14004397,22.1,-67.86,-24.56,75.47
25.14993095,26.67,-69.89,-29.8,80.52
25.16275406,31.17,-69.12,-32.15,82.35
25.18667006,33.9,-67.39,-28.61,80.67
25.18867612,33.47,-64.51,-20.58,75.53
25.18979812,29.33,-60.69,-9.89,68.12
25.20589399,23.06,-56.58,4.83,61.28
25.20951915,16.4,-52.64,26.22,61.05
25.21989202,8.97,-47.89,51.72,71.05
25.22998214,-0.84,-41.07,70.44,81.54
25.24001908,-9.66,-33.27,80.3,87.45
25.24986815,-15.22,-27.62,82.3,88.13
25.26287007,-18.11,-23.08,79.26,84.51
25.28669,-18.28,-20.58,70.34,75.53
25.28881907,-15.51,-20.31,61.04,66.17
25.28973603,-11.24,-21.48,53.37,58.61
25.30561614,-7.13,-22,45.9,51.39
25.3094871,-4.28,-21.1,41.58,46.82
25.31985116,-2.51,-19.58,41.33,45.8
25.33004785,-2.06,-16.95,41.52,44.89
25.34000087,-3.35,-13.71,38.98,41.45
25.34993911,-5.87,-11.25,35.85,38.02
25.36300111,-8.97,-8.39,33.25,35.44
25.38620496,-10.65,-2.84,32.46,34.28
25.38837194,-10.5,4.36,33.85,35.7
25.38949704,-9.64,14.43,35.02,39.08
25.40567517,-8.01,25.73,35.17,44.3
25.40927386,-6.22,37.16,33.26,50.25
25.41998696,-6.22,48.25,28.92,56.59
25.43000603,-7.05,57.34,24.14,62.61
25.43997598,-8.21,64.54,21.52,68.52
25.44992805,-6.19,69.49,25.73,74.35
25.46282601,-0.28,71.37,37.24,80.5
25.48664308,6.74,70.79,52.32,88.28
25.48901701,8.21,67.4,59.89,90.53
25.48992205,4.88,61.81,60.35,86.52
25.507833,0.86,53.11,62.24,81.82
25.50966597,-4.82,43.47,63.2,76.85
25.52011395,-9.73,33.18,56.51,66.24
25.53006601,-12.41,23.49,46.85,53.85
25.54065895,-12.96,14.86,38.96,43.66
25.54937911,-11.26,7.79,34,36.65
25.5629189,-8.08,1.93,30.56,31.66
25.58592391,-3.28,-4.13,27.45,27.95
25.58769798,1.9,-9.94,26.21,28.09
25.58904004,4.89,-15.31,26.16,30.7
25.60788512,4.99,-19.27,25.78,32.57
25.60969615,3.13,-21.96,24.69,33.19
25.61956596,1.15,-23.16,24.58,33.79
25.63012004,-0.1,-23.62,26.96,35.84
25.64012003,-1.96,-22.93,31.57,39.06
25.6499331,-3.82,-22.41,37.15,43.55
25.66276598,-5,-22.33,42.32,48.11
25.68565202,-6.85,-22.22,46.65,52.12
25.68739009,-10.05,-21.3,49.86,55.14
25.68928313,-11.46,-21.19,52,57.3
25.70785689,-9.97,-22.42,52.21,57.68
25.7092731,-8.01,-24.85,49.5,55.96
25.71993709,-5.87,-28.68,44.68,53.41
25.73010397,-3.31,-32.88,39.55,51.53
25.74018788,-0.72,-37.22,34.14,50.51
25.74997306,1.33,-41.39,27.23,49.56
25.763165,1.84,-42.54,18.69,46.5
25.78706813,3.3,-41.96,11.36,43.59
25.78922486,6.22,-44.29,4.25,44.92
25.79013515,10.11,-48.26,-5.42,49.6
25.80584097,14.14,-53,-14.39,56.7
25.80962586,17.38,-59.38,-20.74,65.25
25.81968284,20.58,-63.62,-25.97,71.73
25.83015394,22.4,-67,-30.61,76.99
25.84011197,23.06,-68.97,-34.19,80.35
25.84999394,24.94,-67.54,-34.25,79.72
25.86281514,27.35,-65.08,-30.12,76.75
25.88486886,27.68,-62.04,-23.59,71.91
25.88677382,26.29,-58.85,-13.94,65.94
25.88950706,23.02,-55.26,-1.59,59.88
25.89953017,18.06,-52.18,14.53,57.09
25.91007686,10.77,-49.08,33.9,60.61
25.91994405,1.4,-44.18,53.47,69.37
25.93001795,-7.98,-39.1,68.03,78.87
25.94015908,-14.98,-32.75,74.98,83.18
25.949965,-18.24,-27.87,75.54,82.55
25.96286798,-18.17,-24.75,70.37,76.77
25.98461413,-16.41,-22.68,62.27,68.27
25.98637891,-14.25,-20.95,54.47,60.07
25.98904395,-11.67,-19.62,48.05,53.19
25.999542,-8.79,-18.35,43.81,48.3
26.00954509,-6.54,-16.58,40.77,44.49
26.02016401,-5.55,-14.87,37.83,41.02
26.03015208,-5.29,-12.88,35.59,38.21
26.04073095,-5.65,-10.99,33.79,35.97
26.0500071,-7.28,-9.13,31.04,33.16
26.06310916,-9.98,-5.63,27.88,30.14
26.08407712,-11.72,0.55,26.23,28.73
26.0859139,-10.87,8.41,25.73,29.17
26.0890801,-8.67,18.7,25.39,32.7
26.09950709,-6.31,28.97,25.5,39.1
26.10964298,-5.48,38.72,23.99,45.87
26.11955905,-6.55,48.88,23.35,54.56
26.12991691,-7.6,56.76,25.35,62.62
26.14018416,-6.81,62.68,29.54,69.62
26.14995098,-4.39,64.94,35.19,73.99
26.16297412,-1.73,63.77,41.58,76.14
26.18634486,0.67,59.54,48.82,76.99
26.18804002,1.85,54.41,53.2,76.11
26.18931508,1.12,49.3,54.37,73.4
26.20755696,-0.44,43.87,54.83,70.22
26.20945501,-2.32,37.78,52.89,65.03
26.21952891,-3.8,31.47,47.6,57.18
26.23002601,-4.12,25.02,40.85,48.08
26.24010897,-3.53,19.48,34.65,39.9
26.25038409,-2.53,14.67,29.98,33.47
26.26300216,-1.22,9.94,27.37,29.14
26.28649306,0.45,4.86,27.22,27.65
26.288378,2.32,-1.65,28.32,28.46
26.28948712,3.03,-8.57,29,30.39
26.30779696,2.3,-14.46,29.67,33.08
26.30957389,0.99,-18.87,30.05,35.49
26.31961083,-0.44,-21.69,30.53,37.45
26.33067298,-2.33,-23.02,32.06,39.53
26.34007812,-3.96,-23.32,35.27,42.46
26.35000205,-4.51,-23.63,40.97,47.51
26.36273003,-5.41,-23.09,47.04,52.67
26.38547897,-7.34,-21.86,50.22,55.26
26.38726592,-8.94,-21.04,50.68,55.59
26.38947701,-9.68,-20.85,50.78,55.74
26.40755486,-9.4,-21.42,50.64,55.78
26.40954089,-8.15,-22.07,49.31,54.63
26.41954589,-6.33,-22.73,47.59,53.11
26.43006206,-4.06,-23.85,45.89,51.87
26.44007802,-2.11,-27.15,44.13,51.85
26.44995594,0.66,-33.19,40.4,52.28
26.46298194,4.88,-41.53,33.35,53.48
26.48766017,9.02,-50.31,21.22,55.34
26.49002004,12.79,-57.45,9.07,59.55
26.49088597,16.76,-67.96,-2.35,70.03
26.50714612,19.15,-77.35,-12.11,80.6
26.50953984,21.77,-81.3,-18.72,86.22
26.520226,27.22,-81,-24.08,88.77
26.5300281,34.25,-81.04,-30.83,93.22
26.53998995,41.22,-81.21,-36.83,98.23
26.54998994,46.35,-81.32,-37.9,100.98
26.56300497,47.02,-77.89,-31.12,96.15
26.58446908,43.29,-71.94,-16.51,85.56
26.58631492,38.19,-66.87,5,77.16
26.58931994,30.69,-63.45,32.52,77.62
26.59951186,17.01,-58.74,58.19,84.41
26.60961509,0.39,-51.47,78.45,93.82
26.61970901,-12.2,-43.74,83.64,95.17
26.63003993,-15.87,-37.81,81.69,91.4
26.64012098,-14.77,-33.01,80.62,88.35
26.64994693,-15.14,-28.96,79.43,85.88
26.66309094,-15.12,-26.12,74.6,80.47
26.68557715,-13.92,-23.51,67.62,72.93
26.68750882,-13.61,-21.77,59.38,64.69
26.68930697,-13.94,-20.54,50.38,56.16
26.70476508,-12.99,-19.84,44.13,50.09
26.70911503,-10.65,-18.51,39.45,44.85
26.7199719,-7.83,-16.4,35.91,40.24
26.73006892,-5.17,-14.14,33.32,36.56
26.73986506,-2.67,-11.28,30.89,32.99
26.75007701,-0.63,-8.42,28.67,29.88
26.76284003,0.39,-4.78,26.97,27.39
26.78669715,-0.36,3.3,26.73,26.93
26.78913713,-2.04,13.57,30.35,33.3
26.79004312,-3.03,25.96,37.77,45.93
26.80750585,-4.73,39.72,43.77,59.29
26.80940199,-7.66,50.37,43.11,66.74
26.81990004,-10.09,57.29,39.01,70.04
26.83030915,-10.32,63.59,39.76,75.7
26.84033799,-8.11,67.86,44.4,81.49
26.85005593,-5.35,70.07,49.44,85.92
26.86298013,-2.17,69.75,54.38,88.47
26.88604999,3.21,66.02,59.86,89.17
26.88803601,6.95,59.62,64.72,88.26
26.88942003,6.34,51.88,64.01,82.63
26.90688205,4.67,42.98,59.04,73.17
26.90976691,3.67,33.01,51.88,61.6
26.92005205,2.77,23.49,42.92,49
26.93066287,2.07,15.62,35.53,38.86
26.94003415,1.33,9.11,31.23,32.55
26.94998813,0.89,3.32,29.16,29.36
26.96283698,1.46,-3.13,28.82,29.02
26.98615909,2.29,-9.7,29.17,30.82
26.98781204,2.83,-15.45,29.66,33.56
26.98953509,2.42,-19.59,29.8,35.74
27.00681615,1.46,-22.21,30.9,38.08
27.00960898,0.32,-23.66,32.73,40.38
27.01995301,-1.14,-24.09,34.62,42.19
27.02989697,-2.02,-24.14,37.67,44.78
27.04012203,-2.41,-23.87,41.82,48.21
27.05010486,-3.23,-23.41,46.71,52.34
27.06262183,-6,-22.9,50.69,55.94
27.08687305,-8.86,-23.27,53.07,58.62
27.08905482,-8.89,-24.62,55.88,61.7
27.08992887,-7,-26.53,56.62,62.91
27.10730505,-5.68,-27.99,53.12,60.31
27.10927606,-4.47,-29.71,48.27,56.85
27.11988497,-3.22,-33.15,43.63,54.88
27.12993097,-1.74,-38.1,38.35,54.08
27.14010501,0.15,-42.95,32.34,53.76
27.15010905,2.45,-49.13,24.77,55.07
27.16290307,6.13,-56.04,14.7,58.25
27.18610883,11.42,-61.7,2.74,62.8
27.187819,17.38,-69.19,-9.5,71.96
27.18946505,22.05,-75.11,-21.75,81.24
27.20740008,26.33,-77.57,-31.91,87.91
27.20922804,32.62,-80.41,-36.94,94.31
27.21978593,38.03,-81.13,-40.44,98.3
27.22999787,40.14,-78.33,-41.38,97.25
27.24014497,40.92,-75.14,-34.37,92.2
27.25001097,39.22,-72.25,-20.91,84.82
27.26286912,33.73,-68.76,-3.31,76.65
27.28550005,26.14,-64.89,20.77,72.97
27.28742385,16.07,-59.36,46.73,77.23
27.28934884,3.51,-52.17,68.45,86.13
27.30580115,-7.98,-44.56,82.32,93.94
27.30911303,-14.32,-37.84,82.42,91.81
27.31959295,-17.25,-31.38,80.92,88.48
27.32981706,-17.17,-27.06,79.53,85.74
27.34022403,-13.31,-25.81,71.83,77.47
27.35006309,-6.64,-25.47,61.63,67.01
27.3627069,-1.28,-25.16,53.42,59.06
27.38544297,0.36,-23.79,47.82,53.41
27.38707399,-0.75,-21.1,46.63,51.18
27.38944507,-2.61,-17.63,47.26,50.5
27.40467,-4.36,-13.11,47.09,49.07
27.40965104,-5.41,-9.46,45.45,46.73
27.41963983,-5.8,-6.74,41.55,42.49
27.42991614,-5.1,-5.12,36.89,37.59
27.44024801,-4.16,-2.06,33.28,33.6
27.45009398,-2.27,5.3,32.38,32.88
27.46317196,1.29,14.86,33.35,36.53
27.48529506,4.83,26.18,34.28,43.4
27.48702693,6.35,37.3,35.29,51.73
27.48951697,4.38,48.83,35.27,60.39
27.50490785,2.06,59.24,36.79,69.76
27.50959802,1.84,65.03,43.95,78.51
27.51999784,2.84,68.98,51.96,86.4
27.529948,3.63,71.91,58.95,93.05
27.54017806,2.17,73.76,64,97.67
27.55012202,2.31,72.61,66.15,98.25
27.56295395,7.51,64.95,65.62,92.63
27.58505797,13.71,53.32,59.82,81.29
27.58727813,16.14,41.08,48.74,65.75
27.58963799,15.77,30.16,37.96,50.98
27.60818696,13.54,21.12,31.6,40.34
27.60953307,8.91,14.16,28.26,32.84
27.61966491,4.3,8.14,26.1,27.67
27.62996697,1.62,2.24,25.5,25.64
27.63981414,0.51,-4.23,25.91,26.25
27.64957309,0.04,-10.2,26.17,28.08
27.66287208,-0.51,-14.8,25.74,29.69
27.6868279,-1.07,-18.7,27.51,33.28
27.68875909,-2.28,-21.19,32.33,38.72
27.68984294,-3.63,-22.46,36.57,43.06
27.70721793,-5.01,-23.36,39,45.73
27.70936608,-6.48,-23.33,41.52,48.06
27.71961498,-7.33,-22.97,45.07,51.11
27.73004699,-7.86,-22.62,48.44,54.03
27.74027801,-9.06,-22.58,51.91,57.32
27.75017715,-11.01,-22.65,55.86,61.27
27.76294684,-11.66,-23.89,59.14,64.84
27.78549314,-10,-25.93,60.63,66.69
27.7872541,-6.84,-29.62,58.62,66.03
27.78930688,-2.76,-34.22,51.83,62.16
27.80486298,1.72,-38.26,43.41,57.88
27.80999994,4.35,-39.19,35.3,52.92
27.82004094,5.45,-39.12,27.57,48.16
27.83009005,7.47,-41.73,18.78,46.36
27.84084797,12.24,-47.8,10.25,50.39
27.85028696,17.3,-56.79,2.44,59.41
27.86295915,21.08,-64.22,-6.61,67.91
27.88768506,24.26,-68.26,-15.48,74.07
27.889961,27.67,-70.72,-21.81,79.01
27.89085102,32.07,-72.57,-26.15,83.53
27.90739083,35.37,-72.96,-30.43,86.6
27.90959096,36.87,-70.67,-32.98,86.26
27.91981006,37.67,-67.14,-30.77,82.9
27.92967296,37.76,-64.01,-23.68,77.99
27.93997002,35.67,-61.31,-12.78,72.07
27.95013785,30.36,-57.84,2.42,65.36
27.96292996,22.41,-53.14,21.72,61.62
27.98625016,12.41,-47.76,44.42,66.39
27.98818898,1.6,-40.68,65.28,76.93
27.98954415,-7.95,-33.64,78.95,86.18
28.00471807,-15.27,-27.74,82.59,88.45
28.00967503,-19.98,-22.95,80.63,86.18
28.0200069,-21.16,-19.95,74.01,79.51
28.03018999,-19.05,-18.9,64.68,70.02
28.03994799,-14.98,-18.77,55.91,60.84
28.050174,-9.66,-19.03,47.24,51.83
28.06303,-4.6,-19.51,39.96,44.7
28.0865171,-1.39,-19.69,34.71,39.93
28.08826303,0.05,-19.11,31.98,37.25
28.08952785,-0.58,-17.56,31.86,36.38
28.10501504,-2.79,-15.03,33.03,36.39
28.10966706,-7.35,-10.69,34.32,36.69
28.11965394,-12.98,-4.13,34.82,37.38
28.13020205,-14.65,4.89,35.59,38.79
28.14024401,-13.03,14.43,33.64,38.85
28.15014386,-11.27,24.68,27.61,38.7
28.1629231,-7.34,35.83,22.49,42.93
28.18705583,-3.67,47.15,20.85,51.68
28.18937397,-2.98,58.33,21.34,62.18
28.19029903,-4.42,67.09,22.01,70.74
28.20461583,-6.12,71.65,27.2,76.88
28.21000791,-7.68,72.73,36.66,81.8
28.22002196,-10.31,70.4,46.47,84.98
28.23012805,-14.86,64.43,51.94,84.08
28.24026203,-19.01,57.26,53.6,80.7
28.24995685,-19.69,48.51,55.82,76.52
28.26283813,-17.03,39.3,55.36,69.99
28.28674817,-13.37,30.96,49.69,60.05
28.28916717,-9.29,23.59,42.54,49.52
28.29009414,-5.48,17.32,36.14,40.44
28.30578303,-2.69,12.21,30.36,32.83
28.30962586,-1.36,8,26.55,27.76
28.31967497,-0.25,3.43,25.19,25.42
28.3296349,1.33,-1.72,25.57,25.66
28.34025693,2.92,-7.86,26.4,27.69
28.35019994,3.82,-14.04,26.66,30.37
28.36306787,3.44,-18.27,25.98,31.94
28.38691998,2.3,-20.98,25.92,33.42
28.38891006,0.87,-21.98,27.54,35.24
28.3900311,-0.87,-21.32,30.76,37.43
28.40718007,-3.02,-20.26,36.08,41.48
28.40953994,-4.97,-19.3,41.58,46.1
28.41968608,-6.89,-18.7,45.15,49.35
28.43016005,-7.59,-18.66,49.12,53.09
28.44028902,-7.97,-19.17,52.42,56.38
28.44983506,-9.27,-19.37,53.95,58.06
28.46328187,-9.45,-20.27,54.9,59.28
28.48687816,-7.12,-22.57,54.97,59.84
28.48915505,-3.03,-26.6,52.27,58.72
28.49005294,2.23,-32.43,46.57,56.79
28.50726295,7.66,-39.06,38.11,55.1
28.50962806,11.64,-45.64,26.06,53.82
28.52010894,14.96,-49.14,13.75,53.17
28.53014588,18.1,-52.94,3.8,56.07
28.54027915,19.39,-60.44,-5.11,63.67
28.55018592,19.92,-67.01,-13.64,71.22
28.56287313,22.42,-71.26,-20.46,77.45
28.58664799,26.9,-75.42,-24.51,83.74
28.58859992,29.85,-75.99,-27.93,86.28
28.58972597,31.33,-73.3,-30.54,85.36
28.60694504,33.58,-70.09,-28.55,82.79
28.60920215,35.16,-66.53,-21.91,78.37
28.62075591,34.04,-63.03,-14.01,72.99
28.63006091,30.71,-59.69,-3.31,67.2
28.64026594,25.8,-56.29,12.58,63.18
28.65007615,20.24,-53.4,33.58,66.24
28.66353202,12.32,-49.63,54.51,74.74
28.68682003,1.94,-44.58,72.22,84.89
28.68881106,-8.4,-38.59,82.37,91.34
28.68990397,-15.51,-33.34,81.37,89.29
28.70727897,-18.82,-28.36,79.98,86.92
28.70964313,-21.28,-23.55,78.43,84.6
28.720227,-20.35,-20.57,70.92,76.59
28.73005104,-15.79,-18.98,60.71,65.53
28.74017596,-9.52,-18.65,49.69,53.92
28.74996495,-2.9,-18.59,39.36,43.62
28.76303697,1.14,-17.64,34.84,39.06
28.78720212,0.95,-15.76,34.94,38.34
28.78939104,-2.28,-13.29,34.18,36.74
28.79026198,-6.64,-10.14,33.36,35.49
28.80708194,-10.18,-3.71,32.37,34.13
28.8100059,-11.44,6.05,33,35.44
28.81981587,-12.46,17.83,33.26,39.74
28.83006501,-13.09,30.51,30.55,45.11
28.84011102,-11.74,40.67,26.87,50.13
28.85006404,-12.82,49.62,22.31,55.89
28.86319709,-16.09,58.38,18.57,63.34
28.88799095,-18.56,64.4,22.04,70.55
28.89035583,-20.34,68.17,34.67,79.13
28.8912499,-22.09,69.53,48.03,87.34
28.90679598,-22.01,65.91,62.27,93.3
28.91006684,-20.81,58.21,69.62,93.1
28.91974711,-20.04,49.4,69.44,87.54
28.92984509,-17.98,40.41,66.49,79.85
28.939713,-12.85,31.22,57.38,66.57
28.94988608,-6.87,22.75,47.57,53.17
28.96285415,-2.96,16.41,37.89,41.39
28.98647285,-1.66,12.31,30.63,33.05
28.988204,-1.03,8.96,26.44,27.93
28.9895761,0.45,4.7,24.55,24.99
29.006675,2.55,-0.93,23.29,23.44
29.00979495,4.82,-7.42,22.06,23.76
29.02028012,6.34,-13.66,20.57,25.49
29.03013206,6.7,-18.63,19.17,27.55
29.04077411,5.6,-21.94,18.09,28.98
29.05013013,3.3,-23.36,18.46,29.95
29.06294203,1.08,-23.44,22.06,32.2
29.08692193,-2.04,-22.53,28.77,36.59
29.0892899,-7.7,-20.68,37.8,43.76
29.09017587,-13.33,-18.86,46.69,52.08
29.10652614,-15.8,-18.57,53.77,59.03
29.10973001,-15.16,-19.87,57.07,62.3
29.12016988,-13.25,-21.66,55.37,60.91
29.130229,-10.25,-23.18,51.19,57.12
29.14045596,-6.83,-24.8,46.51,53.14
29.1496079,-4.26,-25.66,42.53,49.85
29.16290116,-2.33,-26.76,40.28,48.41
29.18719006,-0.18,-29.77,37.72,48.05
29.18947911,5.04,-36.32,33.12,49.41
29.19035316,10.63,-43.36,24.03,50.7
29.20693398,13.2,-46.47,11.48,49.65
29.2097261,17.85,-50.39,2.04,53.49
29.22017884,21.55,-54.43,-4.76,58.73
29.23001504,22.86,-57.47,-10.92,62.8
29.24023795,25.24,-61.72,-15.51,68.46
29.25015187,30.13,-67.22,-19.83,76.28
29.2631619,34.73,-71.11,-25.3,83.08
29.28754687,37.44,-72.2,-30.46,86.84
29.28993297,39.11,-70.04,-32.55,86.57
29.290802,40.79,-67.81,-28.36,84.06
29.30753207,40.37,-65.48,-18.95,79.22
29.30924916,36.55,-62.95,-7.38,73.16
29.3202579,31.01,-61.05,8.07,68.94
29.32961202,24.57,-59.78,28.59,70.67
29.34032607,16.66,-58.1,53.08,80.44
29.35047889,6.45,-53.21,74.45,91.73
29.36311316,-3.29,-46.52,82.99,95.19
29.38584495,-8.97,-41.37,81.38,91.73
29.38754487,-11.63,-36.76,80.06,88.86
29.38944888,-12.78,-31.85,78.93,86.06
29.40375805,-11.63,-28.03,76.24,82.05
29.40979505,-9.54,-25.7,70.29,75.44
29.41975284,-7.42,-22.56,63.89,68.16
29.43020511,-4.58,-19.41,57.21,60.58
29.44017386,-3,-16.61,50.62,53.35
29.45004797,-3.7,-13.81,45.28,47.48
29.46304584,-6.87,-10.93,40.71,42.7
29.48555398,-11.41,-6.58,37.99,40.2
29.48731899,-14.18,1.49,36.65,39.32
29.48971605,-11.82,10.88,35.4,38.87
29.50653005,-9.52,22.01,32.68,40.53
29.51006818,-7.45,34.21,27.62,44.59
29.51967406,-4.6,45.34,25.04,51.99
29.52998495,-7.24,54.83,22.41,59.67
29.54032207,-15.82,64.65,16.99,68.69
29.54992795,-26.12,70.21,14.72,76.34
29.56304598,-34.68,71.57,19.51,81.88
29.58725715,-37.16,70.38,29.23,84.78
29.58958197,-31.22,63.19,41.87,81.98
29.59045386,-21.98,52.15,56.19,79.74
29.60679698,-17.96,41.39,61.59,76.34
29.610008,-18.05,33.99,58.28,69.84
29.61970997,-18.86,27.79,53.9,63.5
29.63024783,-18.59,22.16,49.45,57.28
29.640908,-17.09,17.36,44.24,50.5
29.65033507,-14.17,12.77,38.62,43.07
29.66368413,-10.4,8.63,33.29,35.92
29.68793201,-7.32,4.94,28.67,29.99
29.69030404,-4.93,0.97,26.01,26.49
29.69117808,-2.64,-3.17,24.92,25.25
29.70675206,-0.19,-7.7,25.12,26.27
29.70974803,2.23,-12.19,25.24,28.11
29.71991086,4.23,-16.4,25.57,30.67
29.73009515,4.85,-19.35,26.63,33.27
29.74028087,4.43,-20.79,27.96,35.12
29.75022197,3.35,-21.22,29.44,36.44
29.76301885,1.12,-21,32.46,38.67
29.78738499,-1.98,-20.67,36.89,42.33
29.78958583,-4.62,-20.29,41.02,45.99
29.7904489,-5.22,-20.79,45.68,50.45
29.80492401,-4.2,-21.41,50.03,54.58
29.80980515,-3.83,-22.33,49.7,54.62
29.82021689,-3.48,-22.86,47.41,52.74
29.83015394,-2.19,-23.11,46.84,52.27
29.84031415,-1,-23.47,45.6,51.29
29.85025001,0.75,-26.04,43.89,51.03
29.86298895,4.57,-31.19,40.24,51.11
29.8869741,10.09,-38.86,33.49,52.28
29.88914609,16.31,-46.34,24.19,54.75
29.89005494,21.11,-48.71,11.89,54.4
29.90668511,24.49,-48.15,0.06,54.02
29.90979314,26.84,-48.89,-9.38,56.55
29.92035508,26.96,-47.45,-17.32,57.25
29.93048215,27.19,-46.8,-21.36,58.18
29.93977714,29.13,-49.63,-19.95,60.9
29.95039296,30.09,-52.84,-20.15,64.05
29.96299911,29.7,-56.49,-24.19,68.25
29.98754597,29.39,-58.83,-29.27,71.98
29.990309,29.97,-59.04,-32.48,73.74
29.99127889,31.64,-58.72,-31.57,73.79
30.00495005,32.67,-57.67,-26.17,71.26
30.01005816,31.64,-55.66,-16.47,66.1
30.02033496,28.88,-53.04,-1.1,60.4
30.03013587,24.58,-49.17,19.08,58.18
30.0403769,19.13,-45.35,41.38,64.3
30.05028987,12.89,-41.38,64.14,77.41
30.06301403,3.33,-36.04,79.83,87.65
30.08534312,-6.78,-30.91,83.36,89.16
30.08707094,-12.29,-26.96,78.73,84.12
30.08966184,-11.77,-24.95,70.82,76
30.10361409,-7.59,-24.55,62.28,67.37
30.10999417,-2.48,-25.01,53.35,58.97
30.12024498,1.33,-24.55,45.52,51.73
30.13033199,3.5,-23.93,41.8,48.29
30.14018083,3.46,-22.14,41.73,47.36
30.150208,1.51,-20.32,42.44,47.07
30.16323304,-0.74,-18.91,43.78,47.69
30.18626714,-4.49,-17.42,44.06,47.59
30.18821597,-9.52,-15.14,43.33,46.87
30.18956685,-12.54,-13.35,42.02,45.83
30.20563602,-12.03,-9.58,39.96,42.81
30.20948195,-9.01,-5.68,36.6,38.11
30.21986318,-4.63,-1.24,32.06,32.41
30.23024201,-1.44,5.14,27.89,28.39
30.24028206,-2.7,11.81,25.28,28.03
30.25023198,-4.56,16.42,25.12,30.35
30.26309609,-4.76,20.75,27.5,34.77
30.28687882,-6.69,25.3,29.05,39.09
30.28921914,-7.18,31.76,31.11,45.03
30.29009604,-1.99,36.74,37.65,52.64
30.3040359,2.37,38.59,40.59,56.05
30.30980206,3.26,37.88,36.89,52.97
30.31984997,4.6,36,32.97,49.03
30.33035493,5.52,35.69,32.95,48.88
30.34002709,5.51,35.21,34.73,49.76
30.35021305,6.22,34.36,37.27,51.07
30.36299014,7.62,32.5,40.19,52.24
30.38497615,9.04,31.45,39.29,51.13
30.38670397,11.12,28.93,34.55,46.41
30.38941216,12.03,24.83,26.26,38.08
30.40592504,11.44,20.51,16.72,28.82
30.40978217,10.25,16.5,9.36,21.56
30.41975403,9.05,13,5.26,16.69
30.42983699,7.84,9.56,3.1,12.74
30.44000411,6.44,6.31,1.7,9.17
30.44988704,5.06,3.14,0.7,5.99
30.46263289,3.82,0.14,-0.16,3.82
30.48825812,2.84,-2.47,-0.92,3.87
30.49042797,2.16,-4.82,-1.32,5.44
30.49127412,1.56,-6.78,-1.67,7.15
30.50641799,0.81,-8.39,-2.11,8.68
30.50966406,-0.37,-9.69,-2.27,9.95
30.51989102,-1.76,-10.57,-2.8,11.07
30.52982593,-2.84,-11.21,-3.08,11.96
30.53982091,-3.62,-11.68,-3.03,12.59
30.549927,-4.13,-12.02,-2.72,12.99
30.562608,-4.42,-12.09,-2.32,13.08
30.58717608,-4.42,-12.08,-1.63,12.96
30.58930397,-4.04,-12.07,-0.6,12.74
30.59020686,-3.41,-12.22,0.65,12.7
30.60697293,-2.65,-13.09,1.32,13.42
30.609272,-1.94,-14.4,1.47,14.6
30.61979103,-1.65,-15.15,1.4,15.3
30.62982583,-2.06,-15.44,0.57,15.58
30.63994098,-2.85,-15.31,-0.35,15.57
30.64995885,-3.3,-14.83,-1.02,15.22
30.66258693,-3.72,-14.25,-0.84,14.75
30.68701911,-4.18,-13.76,-0.87,14.4
30.68951488,-4.76,-13,-0.64,13.85
30.69039416,-5,-12.14,-0.42,13.13
30.70727086,-4.62,-11.52,-0.16,12.41
30.70980406,-3.78,-11.13,-0.08,11.75
30.71972895,-2.82,-10.67,-0.71,11.05
30.72982287,-2.02,-10.49,-1.2,10.74
30.73993516,-1.33,-10.12,-2.12,10.42
30.74977899,-0.41,-10.07,-3.38,10.63
30.76269412,0.5,-9.77,-4.51,10.77
30.78714895,1.02,-8.99,-5.27,10.47
30.78932595,1.22,-8.11,-5.57,9.91
30.79016709,1.36,-7.14,-5.02,8.83
30.80654407,1.62,-6.39,-4.36,7.9
30.80981183,2.15,-6,-3.81,7.42
30.82003093,2.4,-5.18,-2.64,6.28
30.82980895,2.05,-4.4,-1.03,4.96
30.83994198,1.76,-3.69,-1.19,4.25
30.84988093,1.63,-1.91,-1.12,2.74
30.86273694,1.78,-0.12,-0.1,1.78
30.88689494,2.19,1.78,1.31,3.11
30.88939095,2.66,2.81,2.92,4.84
30.89025617,3.01,3.86,4.1,6.38
30.90647697,3.02,4.88,4.74,7.44
30.90975404,2.87,5.46,5.09,7.99
30.91989303,2.04,5.77,4.46,7.57
30.929842,0.6,6.62,4.06,7.78
30.93994904,-0.09,7.44,4.64,8.76
30.94981694,0.33,7.84,5.48,9.57
30.96267104,1.44,7.57,6.06,9.8
30.98766208,2.9,6.77,6.05,9.53
30.98980117,4.06,5.38,5.04,8.41
30.99067187,4.43,4.4,3.92,7.37
31.00643301,4.07,3.21,2.78,5.88
31.00982499,3.2,3.13,1.98,4.89
31.02002883,1.41,3.53,2.19,4.38
31.02983499,0.06,3.62,2.61,4.46
31.0399611,-0.64,3.57,2.93,4.66
31.04971004,-0.46,3.54,3.84,5.24
31.06266189,0.1,3.17,4.56,5.55
31.08714604,0.62,2.68,4.52,5.29
31.08929396,1.05,2.39,4.46,5.16
31.09016204,1.58,1.94,4.05,4.76
31.10568094,1.71,1.37,3.92,4.49
31.1096251,1.68,1.48,3.35,4.02
31.11985803,1.67,1.36,3.07,3.75
31.12979603,1.64,0.37,3.12,3.54
31.13984513,1.61,-0.02,2.21,2.73
31.14992309,1.67,-0.51,1.83,2.52
31.16273093,1.93,-1.39,2.02,3.12
31.18788099,2.29,-1.8,2.4,3.77
31.190624,2.9,-1.96,2.46,4.27
31.1918509,3.22,-1.93,2.06,4.28
31.206182,3.34,-2.08,1.82,4.33
31.20975494,3.35,-2.21,1.51,4.28
31.21995187,2.85,-1.89,1.2,3.62
31.22990584,2.25,-1.55,0.59,2.79
31.24005008,1.44,-1.46,0.58,2.13
31.24980402,1.02,-1.24,0.89,1.83
31.263309,0.87,-1.22,0.9,1.74
31.28792,1.17,-1.18,1.71,2.38
31.29012203,1.39,-0.68,2.14,2.64
31.29094911,1.49,-0.47,2.33,2.8
31.30703807,1.65,-0.25,2.66,3.14
31.30971313,1.3,0.62,2.22,2.64
31.31992102,0.86,1.23,1.76,2.31
31.32988286,0.63,1.48,1.55,2.23
31.33988595,0.5,1.79,1.45,2.35
31.350214,0.41,1.45,1.34,2.01
31.36357188,0.87,0.6,0.46,1.15
31.38801217,1.29,0.03,0.12,1.29
31.39071488,1.58,-0.15,-0.02,1.58
31.39169288,2.2,-0.17,0.3,2.22
31.40621901,2.32,-0.21,0.3,2.34
31.40980983,2.13,-0.15,-0.06,2.13
31.41990805,1.91,0.18,-0.05,1.91
31.43012404,1.64,0.61,0.2,1.76
31.43989015,1.54,0.66,0.41,1.72
31.44967699,1.53,0.49,0.51,1.68
31.46274686,1.56,0.18,0.57,1.67
31.48620486,1.72,-0.19,0.55,1.81
31.48811603,1.78,-0.48,0.16,1.85
31.48943686,1.57,-0.63,-0.15,1.69
31.50610805,1.16,-0.38,0.09,1.22
31.50973582,0.77,-0.06,0.04,0.77
31.52006197,0.62,0.04,0.08,0.62
31.52972913,0.62,0.27,0.07,0.67
31.5399549,0.66,0.44,-0.06,0.79
31.54981685,0.69,0.24,-0.19,0.75
31.56280684,0.51,0.01,-0.45,0.68
31.587111,0.23,-0.23,-0.74,0.8
31.58925104,-0.12,-0.45,-1.19,1.27
31.59008908,-0.15,-0.31,-1.34,1.38
31.60611892,-0.23,-0.07,-0.99,1.01
31.60957885,0.05,-0.04,-0.76,0.76
31.61983609,0.4,0.03,-0.36,0.53
31.62988591,0.6,0.19,-0.07,0.63
31.63987803,0.24,2.43,0.05,2.44
31.64981389,-0.94,7.55,0.42,7.61
31.66271615,0.92,-1.09,0.71,1.59
31.68670011,-0.6,1.45,0.1,1.57
31.68903995,-0.37,0.35,-1.14,1.24
31.68989587,-0.04,0.07,-1.3,1.3
31.70416498,0.45,0.31,-1.01,1.14
31.70998883,1.12,0.08,-0.28,1.15
31.72018504,1.34,0.02,0.17,1.35
31.72982597,1.24,0.1,-0.15,1.25
31.7399981,0.89,-0.08,-0.34,0.95
31.74987698,0.55,-0.14,-0.57,0.8
31.76319003,0.18,-0.14,-0.51,0.55
31.7870419,0.12,-0.16,-0.63,0.66
31.78978896,-0.03,0.13,-1.07,1.07
31.790766,-0.05,0.22,-1.23,1.25
31.80616903,0.09,0.31,-1.31,1.34
31.80989695,0.37,0.39,-1.21,1.32
31.81975198,0.68,0.26,-0.75,1.04
31.82988596,0.77,0.15,-0.47,0.91
31.84006715,0.65,0.1,-0.23,0.69
31.84999108,0.58,0.08,-0.18,0.61
31.86309409,0.46,0.1,-0.31,0.56
31.88698316,0.33,0.12,-0.28,0.44
31.88931704,0.34,0.11,-0.04,0.35
31.89018703,0.39,0.09,0.29,0.49
31.906075,0.5,0.09,0.59,0.77
31.909729,0.97,0.15,0.98,1.38
31.919981,2.69,-0.11,0.46,2.73
31.92977309,1.76,-0.23,0.23,1.78
31.93996,0.08,0.31,-0.74,0.8
31.94992709,0.55,0.15,-0.76,0.95
31.96437001,0.91,0.05,-0.6,1.09
31.98719192,0.58,0.14,-0.28,0.65
31.98993301,0.8,0.05,-0.25,0.83
31.99100184,0.86,0.06,-0.32,0.91
32.00598598,0.76,0.06,-0.21,0.79
32.00977683,0.66,0.11,-0.39,0.77
32.01991296,0.48,0.17,-0.28,0.58
32.02977395,0.41,0.14,-0.2,0.47
32.03996491,0.59,0.11,-0.27,0.65
32.04982901,0.57,0.1,0,0.57
32.06395602,0.68,0.11,0.06,0.69
32.08814001,0.83,-0.04,0.36,0.9
32.09055495,0.9,-0.14,0.43,1
32.09152389,0.69,0.02,0.01,0.69
32.10597396,0.58,0.05,-0.47,0.74
32.10965514,0.76,0.06,-1.57,1.74
32.12000012,0.75,0.08,-1.26,1.46
32.12991786,0.81,-0.01,-1.31,1.54
32.14011502,1.16,-0.2,-0.9,1.48
32.14986706,0.99,-0.23,1.26,1.61
32.16407204,0.05,0.94,1.35,1.64
32.18696904,-0.83,0.41,-0.25,0.95
32.18974614,0.17,0.17,-0.59,0.63
32.1908319,0.95,0,-0.28,0.99
32.20646,0.57,0.05,-0.1,0.58
32.20980287,0.39,0.12,-0.21,0.45
32.22000909,0.75,0.01,-0.29,0.8
32.2298739,0.51,0.08,-0.18,0.54
32.24003291,0.48,0.09,-0.17,0.51
32.24988008,0.6,0.07,-0.29,0.67
32.26399899,0.55,0.07,-0.29,0.62
32.28691888,0.51,0.07,-0.27,0.58
32.28903794,0.52,0.07,-0.21,0.56
32.28984594,0.51,0.07,-0.06,0.51
32.3061049,0.5,0.06,-0.08,0.5
32.30979609,0.61,0.03,-0.07,0.61
32.31991887,0.45,-0.07,-0.25,0.51
32.33006787,-0.35,0.25,-0.55,0.69
32.34005284,-0.26,-0.06,0.16,0.31
