time,ax,ay,az,atotal
0.006539106369018555,-0.39,-0.48,0.53,0.81
0.013615846633911133,-0.48,-0.15,0.7,0.86
0.04182887077331543,-0.48,0.01,0.79,0.92
0.043992042541503906,-0.47,-0.04,0.94,1.05
0.04581499099731445,-0.24,0.06,1.02,1.04
0.05408215522766113,0.22,0.25,0.59,0.67
0.06378698348999023,0.45,0.23,0.15,0.52
0.07406401634216309,0.23,0.35,-0.02,0.41
0.08410286903381348,0.01,0.52,-0.34,0.62
0.09404110908508301,-0.05,0.39,-0.65,0.75
0.10435104370117188,0.08,0.34,-0.68,0.76
0.1146090030670166,1.54,-0.48,0.39,1.65
0.14799904823303223,1.08,-0.3,-0.29,1.15
0.15029096603393555,0.56,0.16,-1.45,1.56
0.15210413932800293,1.17,0.13,-2.86,3.09
0.1549980640411377,1.63,0.47,-4.38,4.69
0.16434788703918457,1.69,0.63,-5.53,5.81
0.1742699146270752,1.95,0.56,-6.57,6.87
0.18462586402893066,2.04,0.5,-7.22,7.51
0.1945631504058838,1.66,0.56,-7.07,7.28
0.20513105392456055,1.25,0.46,-7.99,8.1
0.21547698974609375,0.68,-0.04,-8.95,8.97
0.2420032024383545,1.1,-1.0,-8.96,9.08
0.24430394172668457,1.57,-1.13,-9.04,9.24
0.24617314338684082,1.3,-1.03,-9.18,9.32
0.25501298904418945,0.43,-1.04,-8.73,8.8
0.2648918628692627,-3.58,1.18,6.36,7.39
0.2750680446624756,-3.46,4.65,9.77,11.35
0.285351037979126,-2.93,4.09,-2.46,5.6
0.2954728603363037,-2.59,3.04,-4.52,6.03
0.30553507804870605,-2.66,3.85,-2.73,5.41
0.3160731792449951,0.32,2.38,-4.27,4.89
0.3466830253601074,1.75,0.59,-4.63,4.98
0.34892797470092773,1.29,-1.05,-5.22,5.47
0.35075902938842773,1.21,-3.54,-7.59,8.46
0.355396032333374,1.14,-7.71,-9.31,12.14
0.3656342029571533,0.8,-5.02,-9.53,10.8
0.3755619525909424,-1.73,1.82,-10.44,10.73
0.38565516471862793,-6.65,2.02,-12.76,14.52
0.3956491947174072,-6.34,-3.47,-16.64,18.14
0.40621399879455566,-3.02,-7.16,-18.67,20.22
0.4162418842315674,-1.92,-6.25,-18.13,19.27
0.44396519660949707,-2.25,-5.05,-17.94,18.77
0.44625401496887207,-1.89,-6.04,-18.3,19.36
0.44805097579956055,-1.97,-6.94,-18.46,19.81
0.45856690406799316,-2.56,-7.17,-17.99,19.53
0.4663400650024414,-3.32,-7.31,-16.31,18.17
0.4760148525238037,-3.24,-6.6,-13.51,15.38
0.48590588569641113,0.86,-6.22,-13.92,15.27
0.4963350296020508,4.27,-6.5,-12.78,14.96
0.5062801837921143,8.91,-6.85,-12.49,16.8
0.5170471668243408,12.44,-6.71,-12.12,18.61
0.5481431484222412,13.37,-7.16,-7.97,17.13
0.550433874130249,12.37,-6.53,-2.8,14.26
0.5522470474243164,10.48,-4.69,0.67,11.5
0.5571200847625732,8.81,-2.96,2.45,9.61
0.566612958908081,8.41,-1.41,2.83,8.98
0.576667070388794,10.95,-0.48,1.3,11.03
0.5865399837493896,18.44,-2.6,-0.89,18.64
0.5974400043487549,28.76,-7.31,-0.89,29.68
0.6074600219726562,37.6,-12.68,1.98,39.72
0.6179049015045166,41.65,-16.58,6.82,45.34
0.6472651958465576,41.03,-16.63,11.09,45.63
0.6495840549468994,36.8,-12.17,11.37,40.39
0.6513431072235107,33.56,-7.04,9.33,35.53
0.6578249931335449,34.01,-5.43,5.92,34.94
0.668086051940918,36.78,-7.26,4.21,37.72
0.677480936050415,38.55,-9.64,5.83,40.16
0.6880500316619873,37.69,-10.38,11.21,40.66
0.6979119777679443,35.15,-9.45,17.28,40.29
0.7084119319915771,32.31,-7.23,20.41,38.89
0.7178440093994141,30.16,-5.53,19.99,36.6
0.7456438541412354,29.2,-5.49,16.58,34.02
0.7479829788208008,28.06,-5.57,12.24,31.11
0.7497918605804443,26.22,-4.74,8.86,28.07
0.7598440647125244,23.82,-4.13,6.27,24.97
0.7677910327911377,21.32,-3.87,4.9,22.21
0.7780230045318604,19.54,-4.24,4.61,20.51
0.7887229919433594,18.16,-5.56,4.91,19.61
0.7979860305786133,16.79,-6.64,6.2,19.09
0.8090929985046387,15.19,-7.18,7.43,18.37
0.8184421062469482,13.69,-8.04,8.09,17.81
0.8448150157928467,12.56,-8.81,7.74,17.18
0.8471040725708008,11.78,-10.08,6.68,16.88
0.8489360809326172,11.21,-11.72,5.77,17.21
0.8578879833221436,10.53,-13.03,5.34,17.58
0.8680059909820557,10.09,-14.12,5.32,18.15
0.8785150051116943,10.21,-15.43,4.69,19.08
0.8879711627960205,10.8,-16.95,4.91,20.68
0.898298978805542,11.81,-18.36,6.17,22.68
0.9089601039886475,12.8,-19.54,6.31,24.19
0.919672966003418,13.57,-20.96,5.89,25.65
0.94759202003479,14.07,-22.28,5.42,26.9
0.9499549865722656,14.09,-23.25,5.03,27.64
0.9517560005187988,14.05,-23.65,4.73,27.91
0.9582889080047607,14.1,-23.94,4.2,28.09
0.9687459468841553,14.28,-24.15,3.44,28.26
0.9786319732666016,14.2,-24.03,2.69,28.04
0.988638162612915,14.35,-23.76,2.05,27.83
0.9989988803863525,14.86,-23.88,2.43,28.23
1.0089972019195557,15.11,-25.73,2.67,29.95
1.0188548564910889,15.2,-26.86,1.87,30.91
1.0526859760284424,14.57,-27.38,1.79,31.06
1.0550100803375244,13.4,-28.56,1.66,31.59
1.0569541454315186,11.29,-29.56,0.98,31.65
1.0596790313720703,8.26,-29.37,0.13,30.5
1.0688011646270752,3.9,-27.6,-0.64,27.88
1.0795729160308838,-1.86,-24.73,-1.75,24.86
1.0890848636627197,-9.28,-21.39,-3.08,23.51
1.0992019176483154,-16.3,-18.25,-4.11,24.81
1.1095879077911377,-20.39,-18.94,-2.45,27.93
1.1213281154632568,-22.96,-23.38,0.48,32.77
1.1492249965667725,-25.22,-27.61,7.22,38.08
1.1515610218048096,-29.33,-28.11,17.41,44.19
1.1533381938934326,-35.64,-24.13,25.83,50.19
1.1599390506744385,-38.67,-21.64,30.54,53.81
1.1715800762176514,-37.48,-23.06,30.8,53.71
1.1802098751068115,-33.84,-24.85,27.92,50.42
1.1903831958770752,-29.15,-24.94,23.86,45.17
1.2015149593353271,-22.93,-25.91,18.93,39.43
1.2101151943206787,-16.69,-26.79,14.0,34.52
1.220958948135376,-10.57,-26.94,9.59,30.48
1.2499899864196777,-4.29,-26.84,5.4,27.71
1.2522718906402588,1.6,-26.84,1.79,26.94
1.2539410591125488,6.95,-26.99,-1.08,27.89
1.2598669528961182,11.62,-27.23,-3.66,29.83
1.275202989578247,15.28,-27.33,-5.71,31.82
1.279918909072876,18.08,-27.43,-6.84,33.55
1.2902350425720215,20.44,-27.67,-7.17,35.14
1.30253005027771,22.29,-27.63,-6.09,36.01
1.3110589981079102,22.64,-27.14,-4.06,35.57
1.3214690685272217,22.31,-25.67,-1.63,34.04
1.3497579097747803,21.64,-23.54,1.13,31.99
1.3519539833068848,20.94,-21.32,3.4,30.07
1.3537609577178955,20.26,-19.89,4.42,28.73
1.3609120845794678,20.01,-19.32,4.43,28.16
1.3708460330963135,19.76,-19.04,4.44,27.79
1.382538080215454,18.72,-18.57,4.13,26.68
1.3912699222564697,17.5,-17.5,3.11,24.94
1.4013478755950928,16.17,-16.13,1.73,22.9
1.4128320217132568,14.32,-14.87,0.22,20.64
1.4216639995574951,12.88,-13.6,-0.8,18.74
1.45082688331604,12.06,-11.72,-0.86,16.83
1.4532511234283447,11.67,-9.34,0.26,14.94
1.4550490379333496,11.59,-7.0,1.89,13.67
1.4613878726959229,11.47,-5.1,3.81,13.11
1.4752650260925293,11.93,-3.8,4.33,13.24
1.4816901683807373,12.24,-2.34,3.52,12.94
1.4929029941558838,12.38,-0.32,3.88,12.97
1.5014889240264893,12.53,1.95,6.52,14.25
1.5128228664398193,12.93,3.27,8.31,15.71
1.5215699672698975,13.23,3.46,8.78,16.25
1.5475900173187256,12.01,4.11,10.1,16.22
1.549903154373169,9.3,6.73,12.11,16.68
1.5517160892486572,8.11,10.44,14.39,19.54
1.5616910457611084,9.53,12.55,16.23,22.62
1.572756052017212,15.14,11.71,18.35,26.51
1.5821669101715088,25.64,9.22,19.8,33.68
1.5920131206512451,37.49,6.75,19.55,42.81
1.6035311222076416,47.46,4.42,18.67,51.19
1.6121790409088135,53.15,2.71,18.58,56.36
1.6238439083099365,53.16,2.02,19.12,56.52
1.6509380340576172,49.27,2.46,19.27,52.96
1.6532440185546875,43.33,2.29,18.9,47.32
1.6550581455230713,36.09,0.62,17.52,40.12
1.6626431941986084,28.56,0.23,15.93,32.7
1.6746089458465576,22.38,3.12,14.86,27.04
1.682513952255249,18.92,7.88,13.14,24.34
1.6930160522460938,17.96,11.46,10.38,23.69
1.7027740478515625,17.66,13.35,7.17,23.27
1.7130510807037354,16.57,14.48,4.3,22.42
1.7236380577087402,15.44,15.08,1.31,21.62
1.7509281635284424,14.98,14.18,-1.5,20.68
1.753183126449585,14.28,12.34,-2.62,19.05
1.7549240589141846,12.68,10.23,-2.42,16.47
1.7625370025634766,10.34,8.67,-1.4,13.56
1.7743961811065674,8.18,6.91,0.1,10.7
1.7824609279632568,6.56,5.46,2.12,8.79
1.7928831577301025,6.23,4.15,4.39,8.67
1.8028090000152588,7.43,3.13,5.88,9.97
1.8127429485321045,9.01,2.12,5.88,10.96
1.8236069679260254,10.04,-1.38,4.97,11.28
1.8549649715423584,11.08,-6.13,5.39,13.76
1.8573381900787354,13.49,-9.67,5.71,17.55
1.8593699932098389,16.4,-11.7,5.26,20.82
1.8635129928588867,18.51,-12.72,4.69,22.94
1.8745369911193848,19.66,-13.39,4.01,24.12
1.8833320140838623,20.0,-14.18,3.39,24.75
1.8934459686279297,20.04,-15.34,3.15,25.43
1.9037458896636963,20.14,-16.48,3.52,26.26
1.9139201641082764,20.12,-17.27,3.53,26.74
1.924349069595337,19.82,-17.86,3.11,26.86
1.9538829326629639,19.45,-18.54,2.95,27.03
1.956151008605957,19.95,-19.46,3.32,28.06
1.9585011005401611,20.9,-20.72,3.81,29.67
1.9638750553131104,21.16,-21.6,4.23,30.53
1.9747779369354248,20.89,-22.15,4.61,30.79
1.9842798709869385,20.61,-23.17,4.94,31.4
1.9934849739074707,19.53,-24.61,5.55,31.9
2.0036840438842773,17.7,-25.84,6.04,31.89
2.0138180255889893,15.68,-26.82,6.45,31.72
2.024055004119873,12.18,-27.92,6.88,31.22
2.0538971424102783,6.56,-28.42,6.59,29.9
2.0560290813446045,-0.09,-28.94,6.14,29.58
2.05829119682312,-9.37,-30.19,5.84,32.14
2.064643144607544,-23.72,-28.36,5.64,37.39
2.0751988887786865,-36.46,-24.57,8.95,44.86
2.085175037384033,-43.92,-20.98,7.68,49.27
2.0947999954223633,-40.0,-15.97,12.64,44.88
2.1052169799804688,-22.94,-19.76,21.12,36.91
2.1145598888397217,-10.6,-27.57,24.95,38.66
2.12637996673584,-10.14,-27.5,30.7,42.44
2.152643918991089,-12.59,-24.92,35.3,45.0
2.1549389362335205,-8.94,-27.55,34.15,44.77
2.156843900680542,-1.89,-30.96,29.51,42.81
2.164828062057495,4.69,-30.96,24.1,39.51
2.175431966781616,10.61,-30.16,18.33,36.85
2.185922861099243,15.37,-29.89,12.91,36.0
2.1950249671936035,18.09,-29.33,8.55,35.5
2.205533981323242,19.22,-28.52,5.56,34.83
2.2166740894317627,19.79,-27.68,3.48,34.2
2.2254409790039062,20.2,-26.95,1.99,33.73
2.255321979522705,19.95,-26.08,1.18,32.85
2.2579450607299805,19.02,-25.26,0.94,31.63
2.2599620819091797,18.12,-24.83,0.91,30.75
2.265578031539917,17.86,-24.97,0.98,30.71
2.275635004043579,17.98,-25.68,0.67,31.35
2.286221981048584,17.59,-26.22,-0.04,31.57
2.295776128768921,16.63,-25.83,-0.56,30.72
2.3059520721435547,15.4,-24.64,-0.75,29.06
2.31701397895813,14.79,-23.42,-0.71,27.7
2.3263399600982666,15.15,-22.54,-0.84,27.17
2.35628604888916,15.85,-22.1,-1.15,27.22
2.3586130142211914,16.06,-21.65,-1.57,27.0
2.360398054122925,15.71,-20.66,-1.93,26.02
2.365741014480591,15.46,-19.77,-2.01,25.17
2.3764209747314453,15.68,-20.0,-1.55,25.46
2.38624906539917,14.97,-18.62,-0.81,23.9
2.396156072616577,14.5,-15.03,-0.24,20.88
2.406451940536499,14.33,-11.81,0.55,18.57
2.4171531200408936,14.79,-10.4,1.3,18.12
2.426424026489258,16.2,-10.44,3.34,19.55
2.456415891647339,18.38,-9.59,8.43,22.37
2.458883047103882,21.6,-6.55,16.35,27.87
2.4606759548187256,25.09,-2.24,25.14,35.58
2.46625018119812,26.75,1.61,30.93,40.92
2.477912187576294,25.84,3.78,32.57,41.74
2.486847162246704,25.25,5.29,31.54,40.74
2.496690034866333,25.65,8.2,32.38,42.11
2.5073800086975098,26.37,15.3,34.69,46.18
2.51804518699646,28.25,24.13,34.4,50.63
2.526705026626587,38.73,24.37,30.11,54.77
2.5542240142822266,56.45,15.67,26.27,64.2
2.556420087814331,64.87,6.87,26.59,70.44
2.5590898990631104,64.0,-0.9,28.75,70.16
2.5671579837799072,58.8,-8.62,25.0,64.47
2.577638864517212,50.16,-15.42,19.05,55.82
2.586919069290161,40.19,-18.86,13.42,46.37
2.597564935684204,31.02,-18.25,10.16,37.39
2.6079318523406982,22.26,-13.83,10.1,28.08
2.616931200027466,16.28,-9.61,9.67,21.23
2.627812147140503,13.08,-6.41,6.12,15.79
2.6567509174346924,11.38,-3.02,2.13,11.96
2.659133195877075,11.41,0.57,0.84,11.45
2.6607911586761475,12.12,3.55,-0.19,12.63
2.667349100112915,13.32,4.99,-2.1,14.37
2.6779448986053467,14.44,4.85,-3.32,15.59
2.6881680488586426,14.91,3.85,-3.87,15.87
2.697553873062134,14.64,2.39,-4.13,15.39
2.7082178592681885,13.72,0.45,-3.71,14.21
2.718412160873413,12.78,-2.23,-2.47,13.2
2.727994203567505,12.52,-5.51,-1.08,13.72
2.758449077606201,12.81,-9.13,0.32,15.73
2.7606608867645264,13.33,-12.69,1.32,18.45
2.7624318599700928,13.83,-15.71,1.65,20.99
2.768104076385498,14.33,-18.56,2.05,23.53
2.7779829502105713,14.56,-20.93,2.29,25.59
2.7886178493499756,14.53,-22.49,1.19,26.8
2.798286199569702,14.61,-23.95,-0.24,28.05
2.8084471225738525,14.98,-25.99,-1.28,30.02
2.819540023803711,15.42,-28.52,-2.19,32.49
2.8287508487701416,15.64,-31.11,-3.03,34.95
2.859318971633911,15.15,-33.16,-3.76,36.65
2.8616230487823486,14.11,-34.16,-4.35,37.21
2.8633830547332764,13.1,-34.47,-4.75,37.18
2.8683180809020996,12.32,-34.73,-4.7,37.14
2.878782033920288,11.81,-34.88,-4.44,37.09
2.8899829387664795,11.58,-34.66,-4.19,36.78
2.8985440731048584,11.36,-34.2,-4.23,36.28
2.909515142440796,11.05,-33.58,-4.8,35.67
2.920090913772583,11.05,-33.6,-5.78,35.83
2.9290249347686768,10.33,-34.05,-7.14,36.29
2.9596059322357178,6.74,-33.38,-8.73,35.15
2.9619529247283936,-0.38,-30.92,-10.29,32.58
2.963805913925171,-10.03,-26.5,-9.31,29.82
2.968278169631958,-20.36,-20.05,-4.84,28.98
2.9798309803009033,-28.11,-15.35,1.25,32.05
2.989420175552368,-30.35,-20.83,6.48,37.37
3.000629186630249,-30.33,-32.81,10.74,45.95
3.00931715965271,-35.77,-36.76,18.9,54.66
3.020695924758911,-44.44,-30.74,29.49,61.55
3.029069185256958,-46.14,-25.15,34.79,63.02
3.0570828914642334,-40.22,-24.66,32.15,57.09
3.059486150741577,-30.86,-27.52,26.18,48.93
3.061260938644409,-23.37,-29.66,19.89,42.67
3.0706100463867188,-18.4,-30.64,13.48,38.19
3.0810811519622803,-12.34,-31.37,5.7,34.18
3.090204954147339,-5.38,-31.63,0.66,32.09
3.099929094314575,-0.26,-31.57,-1.99,31.63
3.110995054244995,3.77,-31.27,-3.14,31.65
3.119952917098999,7.2,-31.04,-3.32,32.03
3.1314451694488525,9.31,-30.64,-3.28,32.19
3.157965898513794,10.55,-30.02,-2.79,31.94
3.16031813621521,11.81,-29.61,-2.15,31.95
3.162095069885254,13.56,-29.78,-1.8,32.77
3.169769048690796,15.18,-30.24,-1.95,33.89
3.180443048477173,15.91,-30.21,-2.21,34.21
3.1909000873565674,15.77,-29.43,-2.38,33.47
3.1998231410980225,14.96,-28.19,-2.64,32.02
3.210442066192627,13.65,-26.53,-2.73,29.96
3.2228519916534424,12.7,-24.84,-2.57,28.01
3.230725049972534,12.09,-23.57,-2.69,26.62
3.2611801624298096,11.71,-22.63,-3.19,25.67
3.2634971141815186,11.68,-21.94,-3.65,25.12
3.2652828693389893,11.48,-21.16,-4.11,24.42
3.2698919773101807,10.51,-19.58,-4.73,22.72
3.280134916305542,9.12,-17.3,-5.12,20.21
3.290231943130493,7.91,-15.35,-4.96,17.96
3.300157070159912,7.21,-14.91,-4.35,17.12
3.310606002807617,6.79,-13.5,-3.38,15.48
3.3206751346588135,8.51,-12.65,-2.9,15.51
3.3304169178009033,11.33,-14.05,-3.31,18.35
3.3636019229888916,13.58,-15.36,-4.39,20.96
3.365941047668457,14.08,-14.0,-5.31,20.55
3.36771297454834,13.38,-10.77,-4.54,17.76
3.3709499835968018,14.57,-8.49,-1.06,16.89
3.381121873855591,18.3,-7.95,3.35,20.23
3.3913559913635254,23.47,-8.5,6.52,25.79
3.4017930030822754,28.48,-8.74,8.35,30.93
3.411365032196045,32.74,-8.16,10.12,35.22
3.4214608669281006,35.12,-6.95,12.77,38.01
3.432215929031372,34.69,-5.43,15.25,38.28
3.460891008377075,32.37,-3.33,17.84,37.11
3.463258981704712,30.03,-0.64,20.74,36.5
3.4650161266326904,29.97,1.2,22.76,37.65
3.4718081951141357,33.38,0.53,23.25,40.68
3.4823291301727295,39.35,-2.95,22.48,45.41
3.491777181625366,46.31,-7.09,22.57,52.0
3.502354860305786,51.96,-8.02,25.72,58.52
3.5122768878936768,48.87,-8.18,26.91,56.38
3.5226900577545166,40.99,-7.94,20.7,46.6
3.533118963241577,38.07,-5.72,19.38,43.1
3.5598020553588867,35.13,-2.8,19.03,40.05
3.562087059020996,31.3,0.0,16.11,35.2
3.5638270378112793,27.82,1.34,15.17,31.71
3.571884870529175,23.61,1.53,14.14,27.56
3.582808017730713,19.29,1.47,12.88,23.24
3.5920259952545166,15.71,1.49,12.09,19.87
3.602277994155884,12.97,1.52,11.15,17.17
3.6127769947052,11.18,1.32,9.55,14.76
3.6220510005950928,10.53,0.64,7.79,13.11
3.63395619392395,10.66,-0.43,6.22,12.34
3.661900043487549,11.46,-1.87,5.1,12.68
3.6642138957977295,12.63,-3.69,4.43,13.88
3.666062116622925,13.52,-6.0,3.75,15.25
3.672361135482788,14.43,-9.05,2.74,17.25
3.6825950145721436,15.09,-12.59,1.37,19.7
3.693290948867798,15.53,-16.07,-0.07,22.34
3.702468156814575,15.83,-19.29,-1.32,24.98
3.713150978088379,15.85,-22.05,-2.22,27.24
3.7233500480651855,15.26,-23.99,-2.73,28.56
3.732877016067505,14.43,-25.2,-2.87,29.18
3.7639830112457275,13.89,-26.4,-3.0,29.98
3.7662899494171143,14.02,-28.06,-3.43,31.55
3.7680470943450928,14.37,-29.87,-4.04,33.39
3.7731001377105713,14.62,-31.19,-4.72,34.76
3.782860040664673,14.81,-31.96,-5.22,35.6
3.79365611076355,14.68,-32.23,-5.51,35.84
3.803765058517456,14.34,-32.07,-5.52,35.56
3.8130228519439697,13.99,-32.11,-5.29,35.42
3.8241000175476074,13.44,-32.51,-5.06,35.54
3.8334529399871826,12.82,-32.73,-4.44,35.43
3.862596035003662,12.74,-33.07,-3.8,35.64
3.8649561405181885,12.92,-34.05,-3.38,36.57
3.866744041442871,12.55,-34.81,-3.42,37.16
3.873309850692749,10.69,-34.58,-4.57,36.48
3.883734941482544,5.84,-33.81,-6.61,34.94
3.8939449787139893,-3.19,-32.19,-8.34,33.4
3.9031951427459717,-15.09,-28.85,-9.25,33.84
3.913053035736084,-29.2,-23.86,-9.32,38.84
3.9255590438842773,-39.67,-20.9,-8.82,45.69
3.9339468479156494,-44.19,-22.71,-6.27,50.07
3.9627749919891357,-45.89,-24.95,0.74,52.23
3.9651758670806885,-45.96,-23.4,10.56,52.64
3.966956853866577,-42.66,-21.75,17.88,51.11
3.973904848098755,-37.55,-22.6,20.3,48.29
3.9846489429473877,-33.07,-23.39,19.23,44.83
3.9940030574798584,-30.36,-23.48,16.99,41.97
4.004798173904419,-27.24,-24.46,13.66,39.07
4.013519048690796,-20.88,-26.68,9.07,35.07
4.023859024047852,-12.76,-28.49,5.16,31.64
4.034257173538208,-5.95,-29.26,2.1,29.93
4.061707973480225,-1.13,-29.53,-0.23,29.55
4.064119100570679,2.5,-29.86,-1.87,30.02
4.065909147262573,5.26,-30.24,-3.04,30.84
4.075276136398315,7.39,-30.29,-3.7,31.39
4.085209131240845,9.08,-29.98,-3.8,31.55
4.094527959823608,10.39,-29.49,-3.32,31.44
4.105294942855835,11.47,-29.16,-2.67,31.44
4.114500045776367,12.18,-29.11,-2.25,31.63
4.125233888626099,12.36,-28.87,-2.15,31.47
4.135493040084839,11.94,-28.3,-2.25,30.79
4.163981199264526,11.05,-27.42,-2.38,29.65
4.166298151016235,10.24,-26.32,-2.55,28.35
4.1680450439453125,10.12,-25.52,-2.96,27.61
4.176386117935181,10.66,-25.18,-3.48,27.56
4.185693025588989,11.42,-24.94,-4.0,27.72
4.195127010345459,12.0,-24.47,-4.48,27.61
4.205310106277466,11.95,-23.3,-4.75,26.61
4.216213941574097,11.08,-21.17,-4.81,24.37
4.22539496421814,10.37,-18.72,-4.65,21.89
4.2357800006866455,11.63,-18.59,-4.61,22.4
4.262968063354492,11.86,-18.25,-4.39,22.2
4.265323877334595,12.95,-15.31,-3.47,20.35
4.267040014266968,14.24,-14.33,-3.33,20.47
4.276687860488892,15.5,-14.05,-2.78,21.1
4.285360097885132,17.27,-11.94,-0.2,20.99
4.296288013458252,19.55,-8.57,3.74,21.67
4.305804967880249,22.41,-5.73,7.69,24.37
4.3162620067596436,25.83,-3.95,10.72,28.24
4.326655149459839,28.11,-2.9,13.7,31.4
4.336184978485107,27.33,-1.09,16.19,31.78
4.365979909896851,24.3,1.87,19.51,31.21
4.368315935134888,22.05,4.43,22.9,32.09
4.370105981826782,22.27,3.92,24.5,33.34
4.376628160476685,25.08,-0.02,24.01,34.72
4.386090993881226,28.45,-4.01,21.16,35.68
4.396207094192505,30.66,-4.54,17.31,35.5
4.40657114982605,33.52,-3.29,13.98,36.46
4.41637396812439,37.24,-3.68,10.57,38.88
4.427149057388306,41.36,-4.62,6.63,42.14
4.436383962631226,44.74,-4.86,3.63,45.14
4.463916063308716,45.48,-3.7,1.63,45.65
4.4663660526275635,43.53,-1.35,0.68,43.55
4.468116998672485,40.16,1.39,0.24,40.18
4.477131128311157,36.83,3.57,0.32,37.0
4.4863221645355225,33.38,4.63,1.25,33.72
4.497140169143677,29.31,5.01,2.82,29.86
4.507369041442871,24.74,5.32,4.7,25.73
4.516510009765625,19.82,6.15,6.65,21.79
4.527384996414185,15.33,7.6,8.32,19.02
4.5369908809661865,12.77,8.67,9.47,18.1
4.56269907951355,12.62,8.23,9.79,17.96
4.56506085395813,13.75,6.63,9.26,17.85
4.567017078399658,15.62,4.87,8.36,18.37
4.577466011047363,17.27,2.91,7.47,19.04
4.587647199630737,18.14,0.58,6.99,19.44
4.596911191940308,18.56,-2.12,6.37,19.73
4.607846975326538,18.94,-5.11,5.32,20.32
4.616976976394653,18.99,-8.31,4.11,21.13
4.627665042877197,18.9,-11.48,2.9,22.3
4.638128042221069,19.18,-14.53,2.01,24.14
4.6646811962127686,19.38,-17.45,0.68,26.08
4.667266130447388,19.03,-20.22,-1.22,27.79
4.669090032577515,18.94,-22.82,-2.94,29.8
4.677567005157471,19.49,-25.69,-4.11,32.5
4.688291072845459,20.35,-29.04,-4.69,35.76
4.69779896736145,20.8,-32.3,-4.86,38.72
4.707795858383179,20.47,-34.51,-4.91,40.42
4.71815299987793,19.28,-35.28,-4.93,40.5
4.728157997131348,18.17,-35.17,-4.59,39.85
4.739216089248657,17.75,-34.96,-3.89,39.4
4.766735076904297,17.99,-35.11,-3.08,39.57
4.769134044647217,18.52,-35.4,-2.36,40.02
4.770878076553345,18.81,-35.4,-1.73,40.12
4.778274059295654,19.21,-35.53,-1.0,40.4
4.788339853286743,20.09,-36.58,-0.45,41.73
4.798027992248535,20.81,-37.69,0.0,43.05
4.808595895767212,20.25,-38.25,0.36,43.28
4.819911003112793,17.26,-37.69,0.51,41.45
4.828418970108032,10.83,-35.21,0.8,36.84
4.838548898696899,-0.93,-31.13,1.43,31.17
4.869395017623901,-16.44,-24.91,2.4,29.94
4.871752023696899,-27.84,-19.58,4.37,34.31
4.873542070388794,-31.8,-21.93,6.64,39.19
4.878751993179321,-34.68,-24.32,6.95,42.92
4.892944097518921,-39.86,-19.03,11.44,45.62
4.898509979248047,-41.0,-14.9,17.18,46.88
4.908818960189819,-35.07,-17.13,20.78,44.21
4.919206857681274,-28.36,-20.35,24.34,42.55
4.93010687828064,-24.74,-20.48,27.86,42.51
4.938996076583862,-22.2,-19.2,29.24,41.43
4.9691078662872314,-18.67,-19.1,26.96,37.95
4.971430063247681,-14.92,-19.69,21.73,32.9
4.973237991333008,-11.06,-20.8,15.1,27.98
4.978484869003296,-7.53,-22.67,8.69,25.41
4.992131948471069,-5.3,-24.44,3.28,25.22
4.998610973358154,-4.33,-25.38,-0.83,25.76
5.00852108001709,-3.45,-25.66,-3.4,26.11
5.019165992736816,-2.0,-25.78,-4.65,26.27
5.02901291847229,-0.44,-25.95,-4.77,26.38
5.039638042449951,0.78,-25.86,-3.89,26.16
5.068615198135376,1.96,-25.73,-2.58,25.93
5.07079005241394,3.1,-25.63,-1.61,25.86
5.072576999664307,4.37,-25.53,-1.33,25.93
5.079312086105347,5.63,-25.65,-1.3,26.29
5.092915058135986,6.5,-25.61,-1.52,26.46
5.099088907241821,6.68,-25.27,-1.71,26.19
5.108994007110596,6.23,-24.63,-1.83,25.47
5.119363069534302,5.77,-23.95,-2.29,24.74
5.129489183425903,5.95,-23.59,-2.93,24.5
5.1404969692230225,7.14,-23.73,-3.71,25.05
5.171651124954224,8.82,-24.3,-4.41,26.22
5.173985004425049,10.23,-24.82,-4.86,27.28
5.1763341426849365,10.83,-24.58,-5.14,27.34
5.179525136947632,10.49,-23.43,-5.09,26.17
5.189570188522339,9.54,-21.83,-4.79,24.3
5.20013689994812,8.67,-20.29,-4.72,22.56
5.2095160484313965,8.04,-19.43,-5.23,21.66
5.219811201095581,7.4,-19.1,-6.26,21.41
5.229814052581787,6.46,-18.81,-7.05,21.1
5.240118980407715,5.66,-18.65,-7.32,20.81
5.270532846450806,5.32,-18.93,-6.83,20.81
5.272763967514038,5.83,-19.87,-5.59,21.44
5.274643182754517,7.81,-21.91,-3.97,23.59
5.280475854873657,10.38,-23.94,-2.51,26.21
5.2910521030426025,13.88,-25.13,-1.0,28.72
5.300462007522583,18.2,-25.52,0.69,31.35
5.3105762004852295,22.87,-23.97,2.51,33.22
5.321542024612427,28.62,-21.66,4.55,36.17
5.330621957778931,35.01,-20.29,6.96,41.05
5.342481851577759,40.73,-19.7,9.48,46.22
5.370666027069092,42.97,-18.56,12.11,48.34
5.372896909713745,41.67,-16.69,14.12,47.05
5.37479305267334,39.62,-16.5,13.96,45.13
5.380995988845825,37.29,-18.46,11.4,43.14
5.3920629024505615,34.16,-18.14,8.16,39.52
5.40137505531311,31.86,-14.92,5.92,35.67
5.411059141159058,31.82,-11.41,4.93,34.16
5.422000169754028,33.29,-8.15,7.02,34.98
5.431296110153198,35.55,-4.04,10.49,37.28
5.441943883895874,37.56,1.28,13.65,39.98
5.466468095779419,39.14,7.64,17.65,43.6
5.468547105789185,41.66,14.45,24.22,50.3
5.47153902053833,42.18,19.48,34.52,57.88
5.481611013412476,33.25,20.45,36.73,53.59
5.492472887039185,26.66,20.39,34.38,48.04
5.502099990844727,24.29,18.13,32.05,44.11
5.511957883834839,21.47,15.19,26.95,37.65
5.522321939468384,19.6,13.1,21.46,31.87
5.532299041748047,18.71,11.37,16.1,27.17
5.542081117630005,18.95,9.23,11.19,23.86
5.569005966186523,20.16,6.37,7.01,22.27
5.57119607925415,21.48,3.4,3.41,22.01
5.573041200637817,22.6,0.44,0.66,22.61
5.58193302154541,23.48,-2.82,-1.37,23.68
5.593526124954224,23.72,-6.25,-2.36,24.64
5.6028831005096436,23.86,-9.86,-2.33,25.92
5.612139940261841,23.88,-13.38,-1.93,27.44
5.622473955154419,23.29,-16.01,-1.66,28.31
5.633602857589722,22.78,-17.81,-1.39,28.94
5.642632007598877,23.09,-19.78,-1.34,30.43
5.669843912124634,24.04,-22.58,-1.77,33.02
5.672044992446899,24.84,-25.47,-2.57,35.67
5.673901081085205,25.53,-28.31,-3.19,38.25
5.682902097702026,25.98,-31.7,-3.64,41.14
5.692721128463745,25.97,-35.43,-4.01,44.11
5.702440977096558,25.47,-38.83,-4.34,46.64
5.712836027145386,24.08,-41.49,-4.51,48.18
5.7233641147613525,21.91,-42.72,-4.18,48.19
5.733717203140259,19.8,-43.01,-3.58,47.48
5.743642091751099,17.5,-43.03,-2.82,46.53
5.7697131633758545,14.94,-42.84,-1.65,45.4
5.772049188613892,11.67,-42.67,-0.2,44.23
5.773933172225952,6.49,-42.17,1.28,42.68
5.782994985580444,-1.27,-39.29,2.22,39.37
5.7932140827178955,-9.87,-34.08,2.04,35.53
5.803614854812622,-19.63,-28.08,0.32,34.26
5.813229084014893,-29.95,-20.36,-2.2,36.28
5.823880910873413,-36.76,-13.59,-4.33,39.43
5.832990884780884,-37.65,-13.09,-3.21,39.98
5.84358286857605,-35.98,-17.83,-0.06,40.15
5.8715410232543945,-32.6,-22.8,6.21,40.26
5.873852968215942,-27.5,-28.51,14.42,42.15
5.87571907043457,-24.31,-31.56,20.74,44.91
5.8839850425720215,-23.0,-30.45,24.4,45.29
5.89379096031189,-20.21,-29.66,24.74,43.59
5.903604030609131,-14.72,-30.51,21.83,40.29
5.913562059402466,-8.03,-31.09,16.48,36.09
5.924175024032593,-2.39,-30.67,11.06,32.69
5.935272932052612,1.09,-29.91,6.53,30.63
5.943706035614014,2.38,-28.85,3.23,29.12
5.971889972686768,2.71,-27.28,1.31,27.44
5.974083185195923,3.17,-25.79,0.78,25.99
5.976060152053833,3.83,-25.03,1.01,25.34
5.983431100845337,4.46,-25.1,1.49,25.53
5.993998050689697,5.05,-25.39,1.81,25.95
6.0038230419158936,5.47,-25.43,1.87,26.07
6.013496160507202,6.02,-25.15,1.56,25.9
6.024068117141724,6.82,-24.85,0.76,25.78
6.033987045288086,7.17,-24.39,-0.46,25.42
6.044656038284302,7.32,-23.77,-1.64,24.92
6.0771660804748535,7.43,-23.08,-2.73,24.39
6.079264879226685,7.61,-22.16,-3.88,23.74
6.081011056900024,7.72,-21.27,-5.37,23.25
6.083961009979248,7.86,-20.49,-6.86,22.99
6.09387993812561,8.36,-19.89,-7.75,22.92
6.10453200340271,8.98,-19.6,-7.91,22.96
6.114160060882568,9.18,-19.63,-7.33,22.87
6.124392986297607,9.01,-19.56,-6.27,22.42
6.134609937667847,9.02,-19.19,-5.19,21.83
6.144621133804321,9.43,-19.25,-4.21,21.84
6.174489974975586,9.31,-18.55,-3.36,21.02
6.17663311958313,9.75,-17.48,-2.01,20.11
6.178385019302368,10.62,-17.03,-0.26,20.07
6.185106992721558,11.85,-16.9,1.22,20.67
6.196534872055054,13.8,-17.17,3.45,22.29
6.205298185348511,16.09,-17.59,6.26,24.64
6.216665029525757,17.84,-16.32,8.88,25.75
6.225621938705444,19.5,-13.55,11.73,26.48
6.236365079879761,22.87,-10.76,13.71,28.75
6.245476007461548,27.87,-8.42,12.48,31.67
6.271360158920288,31.79,-5.22,8.07,33.21
6.273550987243652,35.11,-0.77,3.15,35.25
6.275559186935425,41.41,2.78,-2.01,41.55
6.286882162094116,48.68,4.38,-7.88,49.5
6.295646905899048,53.72,8.16,-11.63,55.56
6.30579686164856,60.86,15.08,-10.47,63.56
6.317291021347046,69.3,19.71,-4.47,72.18
6.325891971588135,72.22,19.07,3.58,74.78
6.33624005317688,71.84,13.16,10.74,73.82
6.346333980560303,69.08,5.54,14.09,70.71
6.372347116470337,55.82,2.27,14.55,57.72
6.374556064605713,39.72,4.32,13.88,42.29
6.377047061920166,26.76,6.9,13.25,30.64
6.386188983917236,19.72,6.15,12.84,24.32
6.3967978954315186,15.87,3.86,12.01,20.27
6.405611038208008,12.1,3.48,10.29,16.26
6.415798902511597,8.91,4.98,8.23,13.11
6.425824880599976,7.31,6.52,5.67,11.31
6.435922861099243,7.4,7.4,2.63,10.79
6.446547985076904,8.43,7.54,-0.3,11.31
6.47704815864563,10.47,6.62,-2.64,12.66
6.479178190231323,13.12,4.31,-4.5,14.52
6.4809181690216064,14.83,1.12,-5.49,15.85
6.486923933029175,15.72,-1.83,-5.41,16.72
6.49734091758728,16.12,-4.34,-4.68,17.33
6.507980108261108,16.36,-7.09,-3.79,18.22
6.517104864120483,16.49,-10.39,-2.72,19.67
6.528717994689941,16.8,-13.74,-1.66,21.76
6.537440061569214,16.98,-16.75,-0.87,23.86
6.547590017318726,16.76,-18.95,-0.24,25.29
6.577769994735718,16.48,-20.64,0.34,26.41
6.57987904548645,16.39,-22.44,0.53,27.79
6.581640005111694,16.52,-24.66,0.37,29.68
6.587151050567627,16.36,-27.14,0.07,31.68
6.597533941268921,16.25,-29.67,-0.15,33.82
6.608330965042114,16.49,-32.33,-0.37,36.29
6.617172002792358,16.8,-34.63,-0.58,38.49
6.628883123397827,16.7,-36.13,-0.55,39.8
6.637471914291382,16.1,-36.98,-0.19,40.33
6.648215055465698,15.27,-36.96,0.64,39.99
6.67809796333313,14.22,-36.02,1.18,38.74
6.680206060409546,12.66,-34.67,0.97,36.92
6.68198299407959,11.34,-33.73,0.33,35.58
6.687723875045776,9.66,-33.22,-0.76,34.6
6.697610139846802,6.43,-32.43,-2.29,33.14
6.707738161087036,1.39,-29.89,-3.86,30.17
6.71711802482605,-6.39,-25.33,-5.82,26.76
6.727827072143555,-17.08,-18.56,-7.24,26.24
6.738056898117065,-26.79,-14.47,-5.35,30.91
6.748319864273071,-31.65,-19.89,-1.63,37.41
6.778055906295776,-34.01,-27.88,4.27,44.18
6.78023099899292,-40.06,-28.21,14.19,51.0
6.7819130420684814,-43.2,-25.2,24.0,55.47
6.7882239818573,-39.23,-25.44,28.62,54.82
6.799599885940552,-31.98,-26.67,29.11,50.8
6.809185028076172,-24.53,-27.01,27.52,45.7
6.819550037384033,-17.9,-26.56,24.86,40.54
6.827816009521484,-12.35,-26.0,20.33,35.23
6.837957143783569,-7.28,-26.47,14.75,31.16
6.848847150802612,-1.46,-27.33,9.25,28.88
6.8763720989227295,4.05,-27.7,4.69,28.38
6.878664016723633,8.3,-27.39,1.55,28.66
6.8804051876068115,11.07,-26.54,-0.53,28.76
6.888154983520508,12.19,-25.37,-2.14,28.22
6.898381948471069,12.0,-24.2,-3.1,27.18
6.909152030944824,11.17,-23.13,-3.26,25.89
6.918288946151733,10.3,-22.32,-3.09,24.77
6.928744077682495,9.75,-22.04,-2.76,24.25
6.938604116439819,9.57,-22.12,-2.23,24.2
6.94945216178894,9.59,-22.29,-1.78,24.33
6.981784105300903,9.49,-22.2,-1.58,24.19
6.984090089797974,9.35,-21.93,-1.48,23.88
6.985867023468018,9.13,-21.76,-1.58,23.65
6.988829851150513,9.03,-21.46,-1.89,23.35
6.998619079589844,8.99,-20.86,-2.24,22.82
7.009243011474609,8.9,-20.17,-2.64,22.2
7.01891016960144,9.42,-19.61,-3.24,21.99
7.029703855514526,10.6,-19.26,-4.19,22.37
7.040478944778442,11.61,-19.1,-5.39,22.99
7.049761056900024,12.22,-18.76,-5.99,23.17
7.0794830322265625,12.29,-17.65,-5.56,22.21
7.081629037857056,12.22,-16.53,-4.17,20.97
7.083317995071411,12.33,-15.59,-2.28,20.0
7.090017080307007,12.21,-13.17,-0.33,17.96
7.1009440422058105,11.74,-10.21,1.54,15.63
7.1095359325408936,10.47,-7.01,2.93,12.93
7.1192848682403564,9.71,-3.69,4.27,11.23
7.129817008972168,8.41,-1.19,7.33,11.21
7.13995099067688,7.63,0.61,11.21,13.57
7.1500818729400635,10.82,1.7,13.19,17.14
7.178992033004761,16.38,1.81,15.65,22.72
7.181370973587036,21.86,2.06,17.73,28.22
7.183184862136841,27.3,2.42,18.93,33.3
7.190068960189819,31.81,1.93,19.38,37.29
7.201480150222778,35.02,1.59,17.13,39.01
7.2107319831848145,38.47,2.61,14.37,41.14
7.220234155654907,42.71,4.83,12.11,44.65
7.231755018234253,46.61,7.16,9.27,48.05
7.240634202957153,50.78,7.51,7.57,51.88
7.251491069793701,53.88,6.22,7.49,54.75
7.2779669761657715,53.52,4.64,6.84,54.15
7.280323028564453,50.81,3.23,6.36,51.3
7.282147169113159,46.28,2.51,5.93,46.72
7.29083514213562,39.86,2.76,5.5,40.33
7.3010289669036865,32.74,3.58,5.91,33.46
7.31116509437561,26.19,4.74,6.2,27.32
7.320678949356079,21.0,6.32,6.37,22.83
7.332513093948364,17.67,8.08,6.85,20.6
7.341346025466919,15.81,9.25,7.31,19.72
7.351319074630737,15.06,9.32,7.56,19.25
7.3834099769592285,15.02,8.24,7.94,18.88
7.385679006576538,15.05,6.62,8.45,18.48
7.387423038482666,15.23,5.16,8.83,18.34
7.391011953353882,15.84,3.68,9.17,18.66
7.402599096298218,16.92,1.25,9.23,19.31
7.411241054534912,18.34,-2.38,8.75,20.45
7.421705007553101,18.95,-6.46,7.74,21.46
7.43227219581604,19.25,-10.24,6.27,22.68
7.442481994628906,19.91,-14.07,4.93,24.87
7.451204061508179,20.17,-17.69,3.63,27.07
7.480532884597778,20.38,-20.55,2.62,29.06
7.482837915420532,20.81,-22.96,2.31,31.07
7.484611988067627,21.86,-25.91,2.21,33.97
7.49141001701355,23.23,-29.73,1.95,37.77
7.503021001815796,23.56,-33.21,1.68,40.75
7.511973142623901,23.01,-35.71,1.67,42.51
7.522305011749268,22.08,-37.4,1.39,43.45
7.531522035598755,20.91,-38.55,0.99,43.86
7.5441460609436035,20.04,-39.54,0.7,44.33
7.552035093307495,19.65,-40.66,0.46,45.16
7.5810911655426025,19.09,-41.46,0.31,45.64
7.583463907241821,18.37,-41.33,0.53,45.23
7.585226058959961,17.84,-40.49,0.93,44.25
7.5921008586883545,17.58,-39.9,0.78,43.6
7.603381872177124,18.16,-40.29,0.39,44.19
7.612046957015991,18.19,-41.46,-0.27,45.27
7.622786045074463,16.01,-41.02,-0.89,44.04
7.633810043334961,12.16,-38.91,-1.79,40.8
7.643228054046631,5.39,-35.86,-4.27,36.51
7.651921987533569,-6.95,-29.5,-6.97,31.09
7.683093070983887,-22.37,-21.18,-9.12,32.12
7.685379981994629,-29.74,-21.86,-4.95,37.24
7.687172174453735,-27.39,-31.92,3.45,42.2
7.692947149276733,-25.82,-35.77,13.71,46.19
7.70303201675415,-29.71,-30.19,25.88,49.63
7.7127039432525635,-31.76,-25.03,34.58,53.2
7.72331690788269,-32.0,-24.39,38.12,55.42
7.734061002731323,-32.05,-23.69,38.08,55.12
7.742656946182251,-32.06,-21.18,35.28,52.16
7.754580974578857,-29.51,-19.7,30.27,46.63
7.780407190322876,-23.75,-20.61,23.7,39.37
7.7827370166778564,-17.42,-22.85,16.57,33.16
7.784489870071411,-11.74,-25.34,10.75,29.92
7.794239044189453,-7.0,-27.2,6.48,28.82
7.802499055862427,-2.96,-28.12,3.4,28.47
7.812685966491699,1.04,-28.71,1.15,28.75
7.824702024459839,4.75,-29.42,-0.47,29.8
7.834605932235718,7.68,-29.5,-1.75,30.53
7.842706918716431,9.47,-28.85,-3.12,30.52
7.853157997131348,10.7,-28.02,-4.32,30.3
7.883522987365723,11.53,-27.25,-5.3,30.05
7.885828018188477,12.09,-26.33,-6.04,29.59
7.887560129165649,12.36,-25.43,-6.57,29.02
7.893935918807983,12.6,-24.93,-6.93,28.78
7.902840852737427,12.85,-24.85,-7.01,28.84
7.913255929946899,13.14,-25.19,-6.83,29.22
7.9231719970703125,13.43,-25.91,-6.45,29.88
7.93398118019104,13.41,-26.38,-6.02,30.19
7.943295001983643,12.9,-26.08,-5.7,29.64
7.953960180282593,12.18,-24.98,-5.42,28.31
7.985641002655029,11.62,-23.53,-5.43,26.79
7.987951993942261,11.43,-22.26,-5.68,25.65
7.9897620677948,11.92,-21.48,-6.31,25.36
7.994266033172607,12.46,-21.09,-6.85,25.43
8.00550389289856,12.98,-20.53,-7.2,25.33
8.014037847518921,13.35,-19.75,-7.3,24.93
8.025490045547485,13.66,-19.15,-7.05,24.55
8.03491997718811,14.54,-19.13,-6.5,24.89
8.044558048248291,15.65,-19.8,-5.9,25.91
8.054839849472046,16.17,-20.04,-5.06,26.24
8.083921194076538,16.32,-19.18,-3.63,25.44
8.086243867874146,15.66,-17.38,-1.69,23.45
8.087997198104858,14.52,-14.67,0.92,20.66
8.095108985900879,15.39,-11.96,3.96,19.88
8.105885028839111,18.48,-10.04,6.93,22.14
8.114675998687744,22.38,-8.52,8.97,25.57
8.125768899917603,25.53,-6.95,10.34,28.4
8.135143995285034,27.38,-5.45,12.2,30.46
8.144875049591064,27.84,-3.63,14.15,31.43
8.156300067901611,28.9,-1.27,16.39,33.24
8.184242963790894,31.95,0.41,19.56,37.46
8.186600923538208,35.77,0.55,22.0,41.99
8.18837285041809,38.19,2.06,23.27,44.76
8.195497989654541,41.17,6.95,24.62,48.47
8.206532001495361,45.61,11.6,25.4,53.47
8.215019941329956,50.0,13.92,26.8,58.41
8.226253986358643,53.61,14.05,29.2,62.64
8.235027074813843,55.44,11.13,27.64,62.93
8.24564003944397,52.97,7.53,22.53,58.05
8.256817102432251,45.55,6.11,17.02,49.0
8.284693956375122,36.01,6.99,11.87,38.55
8.286890983581543,26.28,8.93,7.53,28.75
8.28856897354126,17.81,11.31,5.27,21.74
8.294970989227295,12.06,13.69,5.83,19.15
8.305121183395386,9.93,14.72,7.43,19.24
8.315621137619019,10.26,13.81,9.01,19.42
8.324954986572266,11.47,11.96,9.98,19.34
8.337405920028687,12.57,10.18,10.5,19.28
8.346073865890503,13.31,8.36,10.47,18.88
8.356897115707397,13.76,5.96,10.05,18.05
8.384801149368286,14.08,2.72,9.86,17.4
8.38717007637024,14.75,-0.85,9.45,17.53
8.388970136642456,15.13,-4.07,8.69,17.91
8.396197080612183,14.89,-6.45,8.32,18.23
8.40610384941101,14.91,-8.48,8.0,18.92
8.416952848434448,15.61,-10.87,7.3,20.37
8.427402019500732,16.71,-13.67,6.21,22.46
8.436833143234253,18.05,-16.5,4.81,24.92
8.44617486000061,19.64,-19.09,3.15,27.56
8.45744800567627,21.34,-21.61,1.46,30.4
8.484698057174683,22.44,-23.73,0.0,32.65
8.487013101577759,23.31,-25.29,-1.01,34.4
8.488847970962524,24.29,-26.73,-1.85,36.16
8.496472120285034,25.57,-28.53,-2.7,38.4
8.507764101028442,26.94,-30.74,-3.76,41.04
8.517173051834106,28.01,-33.12,-4.7,43.63
8.528155088424683,28.07,-34.93,-5.73,45.17
8.536617040634155,27.19,-36.37,-6.74,45.9
8.547835111618042,25.75,-37.83,-7.38,46.35
8.558237075805664,23.79,-39.11,-7.51,46.38
8.585426092147827,21.53,-39.76,-7.09,45.76
8.587728023529053,19.16,-40.12,-6.03,44.86
8.589509010314941,16.25,-40.62,-4.69,44.0
8.59686803817749,14.16,-41.27,-4.89,43.9
8.60850214958191,9.0,-42.46,-8.2,44.17
8.61692214012146,-3.66,-40.94,-12.15,42.86
8.627479076385498,-22.11,-32.82,-15.02,42.32
8.638449907302856,-35.22,-24.38,-14.95,45.36
8.647084951400757,-37.87,-30.17,-5.25,48.7
8.658627033233643,-36.56,-37.0,3.37,52.12
8.687028169631958,-37.39,-35.29,15.25,53.62
8.689305067062378,-39.6,-30.29,25.08,55.8
8.691143989562988,-38.2,-27.11,29.18,55.18
8.697403192520142,-34.75,-27.06,28.5,52.46
8.712383031845093,-31.25,-27.84,25.14,48.82
8.717710018157959,-27.86,-28.06,20.17,44.38
8.727447986602783,-23.51,-28.06,15.08,39.59
8.738701105117798,-18.34,-28.69,10.8,35.72
8.747976064682007,-12.89,-29.47,7.26,32.97
8.75816798210144,-7.31,-30.25,4.19,31.4
8.787872076034546,-2.06,-31.13,1.55,31.23
8.79025387763977,2.51,-31.66,-0.67,31.76
8.792118072509766,6.29,-31.66,-2.58,32.38
8.798177003860474,9.03,-31.32,-4.27,32.87
8.81186318397522,10.93,-30.86,-5.44,33.18
8.818052053451538,12.32,-30.39,-6.13,33.36
8.829439878463745,13.22,-29.77,-6.58,33.23
8.838016986846924,13.63,-29.2,-6.88,32.95
8.849837064743042,13.78,-28.78,-6.77,32.61
8.858551979064941,13.89,-28.22,-6.22,32.06
8.8868248462677,13.7,-27.52,-5.62,31.25
8.88905119895935,13.25,-26.73,-5.37,30.31
8.890957117080688,12.53,-25.86,-5.41,29.24
8.898515939712524,11.72,-24.85,-5.33,27.98
8.909666061401367,11.24,-23.69,-4.94,26.68
8.9184410572052,11.07,-22.8,-4.8,25.79
8.930020093917847,11.23,-22.36,-4.98,25.51
8.938892126083374,11.78,-22.42,-5.19,25.85
8.949112176895142,12.11,-22.27,-5.14,25.86
8.960193872451782,12.2,-21.46,-4.78,25.14
8.985782861709595,12.09,-20.78,-4.44,24.44
8.988168001174927,11.39,-19.26,-4.1,22.74
8.990041017532349,11.23,-17.29,-4.16,21.03
9.0003080368042,11.24,-16.39,-4.42,20.35
9.011147022247314,12.43,-15.88,-5.22,20.83
9.018973112106323,14.01,-15.17,-6.05,21.51
9.030014038085938,14.18,-13.15,-5.73,20.16
9.040601015090942,15.26,-10.13,-4.09,18.76
9.049860000610352,17.31,-6.87,-2.7,18.81
9.060456037521362,20.74,-3.83,-1.9,21.17
9.086119890213013,24.75,-1.5,-0.88,24.81
9.088259935379028,29.13,0.58,1.43,29.17
9.090167999267578,34.24,3.0,4.92,34.72
9.099364042282104,39.0,6.12,9.07,40.5
9.11125898361206,42.26,9.26,12.61,45.06
9.119457960128784,43.48,11.13,14.14,47.05
9.129482984542847,44.02,12.42,14.44,47.96
9.14112401008606,45.84,15.0,13.89,50.19
9.149641990661621,50.92,17.83,14.15,55.77
9.160201072692871,61.37,18.42,15.3,65.87
9.189369916915894,68.42,16.53,14.0,71.76
9.191808938980103,65.31,10.97,10.98,67.12
9.193689107894897,54.24,4.62,7.32,54.92
9.199904203414917,39.7,2.4,4.11,39.98
9.210309982299805,26.21,3.01,2.21,26.47
9.22071099281311,18.19,4.57,0.23,18.75
9.231486082077026,14.95,6.2,0.15,16.18
9.24002718925476,13.75,7.85,1.47,15.9
9.251782178878784,13.48,8.34,2.96,16.12
9.26016902923584,13.01,7.6,4.03,15.59
9.28902006149292,12.1,6.54,4.52,14.47
9.291248083114624,11.14,5.33,4.7,13.21
9.29302191734314,10.29,3.95,4.63,11.95
9.300666093826294,9.6,2.49,4.0,10.69
9.311558961868286,9.44,1.24,2.99,9.97
9.320513010025024,10.16,0.06,2.28,10.41
9.33206295967102,11.86,-1.42,1.96,12.1
9.34049916267395,14.44,-3.41,1.88,14.95
9.35126805305481,17.11,-5.75,1.64,18.12
9.362189054489136,19.83,-8.63,1.14,21.65
9.388256072998047,21.9,-12.18,0.17,25.05
9.3905189037323,22.43,-16.22,-0.73,27.68
9.392423868179321,21.46,-19.62,-1.49,29.11
9.400905847549438,19.51,-21.27,-2.03,28.93
9.411273002624512,18.34,-22.14,-2.37,28.84
9.420984029769897,18.88,-23.63,-2.86,30.38
9.431557893753052,20.23,-25.82,-3.51,32.98
9.442710161209106,21.45,-28.28,-4.21,35.74
9.451061964035034,21.95,-30.41,-5.09,37.84
9.46256399154663,21.56,-31.69,-6.22,38.83
9.490105867385864,20.32,-32.15,-7.2,38.7
9.492410898208618,19.28,-32.16,-7.49,38.23
9.494412183761597,18.5,-31.37,-7.35,37.15
9.501734018325806,18.22,-30.43,-6.89,36.13
9.51252293586731,18.66,-31.09,-6.26,36.79
9.521563053131104,18.94,-32.87,-6.05,38.41
9.532098054885864,17.8,-34.22,-6.65,39.14
9.542005062103271,13.09,-34.43,-7.1,37.51
9.551829099655151,4.02,-32.71,-7.03,33.69
9.561970949172974,-8.22,-28.66,-6.03,30.41
9.592171907424927,-19.48,-25.58,-3.82,32.37
9.594373941421509,-26.22,-28.09,-0.87,38.43
9.596274137496948,-30.48,-32.73,1.0,44.73
9.60195517539978,-37.51,-31.56,3.7,49.16
9.612436056137085,-46.58,-25.27,7.64,53.54
9.622802019119263,-48.89,-22.94,10.19,54.95
9.632416009902954,-43.17,-25.79,11.13,51.5
9.642497062683105,-35.83,-26.48,12.01,46.14
9.652925968170166,-28.88,-24.9,13.17,40.34
9.662158012390137,-21.64,-25.72,13.13,36.08
9.693624019622803,-15.78,-28.02,12.39,34.46
9.695754051208496,-12.1,-28.88,12.13,33.57
9.697520017623901,-8.55,-28.82,11.42,32.15
9.702397108078003,-3.55,-29.33,9.26,30.96
9.712522029876709,1.8,-30.01,6.54,30.76
9.723298072814941,6.34,-29.94,3.83,30.84
9.733469009399414,9.63,-29.3,1.31,30.86
9.742429971694946,11.78,-28.45,-0.75,30.8
9.752364873886108,13.01,-27.41,-2.14,30.41
9.762934923171997,13.65,-26.48,-2.94,29.93
9.793099164962769,14.19,-26.26,-3.61,30.06
9.795438051223755,14.94,-27.15,-4.16,31.26
9.79727816581726,15.15,-28.28,-4.72,32.42
9.803308010101318,14.23,-28.31,-5.38,32.13
9.813129186630249,12.45,-26.83,-5.93,30.16
9.822937965393066,10.69,-24.68,-6.1,27.57
9.832931995391846,9.79,-23.05,-6.32,25.82
9.843230962753296,9.83,-22.3,-6.74,25.28
9.852675199508667,10.18,-22.05,-6.97,25.26
9.863165140151978,10.78,-21.85,-7.17,25.39
9.8941490650177,11.62,-21.79,-7.45,25.79
9.896275043487549,12.01,-21.62,-7.41,25.81
9.898031949996948,12.08,-20.97,-7.04,25.2
9.903338193893433,11.91,-20.19,-6.72,24.38
9.914984941482544,11.79,-19.37,-6.08,23.47
9.923453092575073,12.15,-19.26,-5.07,23.32
9.9338219165802,11.25,-17.89,-3.62,21.44
9.943917989730835,11.12,-14.69,-2.01,18.53
9.953688859939575,11.21,-12.7,-0.44,16.94
9.96535611152649,12.01,-11.4,1.03,16.59
9.99458909034729,13.96,-10.27,3.0,17.58
9.996729135513306,16.78,-8.29,4.76,19.31
9.998486995697021,20.01,-5.37,6.54,21.72
10.004150152206421,23.71,-3.34,7.61,25.12
10.01462197303772,27.45,-2.27,7.5,28.54
10.024608850479126,31.1,-1.78,8.37,32.25
10.034064054489136,34.53,-0.77,10.03,35.96
10.044100999832153,36.49,1.18,10.24,37.91
10.055086851119995,37.12,2.63,9.05,38.29
10.064953088760376,38.41,3.8,7.37,39.29
10.096598863601685,42.73,5.05,6.89,43.57
10.098733186721802,51.03,5.44,8.44,52.0
10.100474119186401,60.78,3.92,10.84,61.86
10.10433316230774,65.66,1.4,12.37,66.82
10.114784955978394,63.49,0.13,12.61,64.73
10.125073194503784,56.14,0.01,14.76,58.04
10.135300874710083,45.25,0.69,16.32,48.1
10.144965887069702,33.71,1.79,16.68,37.65
10.156152963638306,24.61,2.21,16.9,29.93
10.164695978164673,18.44,2.17,15.97,24.49
10.19554591178894,14.56,3.22,14.19,20.58
10.197662115097046,12.55,5.49,12.28,18.39
10.199416875839233,12.43,7.4,10.26,17.73
10.204830884933472,13.71,7.88,8.22,17.82
10.214985132217407,15.21,7.15,6.15,17.89
10.225684881210327,16.9,5.76,4.4,18.38
10.23648715019226,17.9,3.99,2.47,18.5
10.245082139968872,18.37,1.57,0.3,18.43
10.256655931472778,18.76,-1.51,-1.32,18.86
10.265199899673462,18.92,-5.13,-2.36,19.74
10.294095993041992,18.92,-8.97,-2.96,21.14
10.296200037002563,18.87,-12.73,-3.58,23.04
10.298022031784058,18.75,-16.09,-4.05,25.03
10.305305004119873,18.63,-18.98,-4.25,26.93
10.317341089248657,18.75,-21.67,-4.09,28.94
10.325530052185059,19.06,-24.45,-3.87,31.24
10.337038040161133,19.18,-27.15,-3.85,33.46
10.345614194869995,18.9,-29.44,-3.93,35.2
10.356062173843384,18.19,-31.11,-4.06,36.26
10.367475032806396,17.22,-31.94,-4.15,36.52
10.395907163619995,16.39,-32.11,-4.15,36.28
10.397743940353394,15.91,-32.12,-4.11,36.07
10.399433851242065,15.84,-32.31,-4.01,36.2
10.405894041061401,15.87,-32.58,-3.88,36.44
10.417487859725952,15.9,-32.83,-3.85,36.68
10.426750898361206,16.26,-33.04,-3.92,37.03
10.436102151870728,16.78,-33.62,-4.13,37.8
10.446079015731812,17.1,-34.9,-4.42,39.11
10.457688093185425,16.62,-36.41,-4.61,40.28
10.467697858810425,14.7,-36.67,-4.78,39.79
10.495625972747803,10.36,-35.69,-5.29,37.53
10.497940063476562,2.75,-32.98,-6.44,33.71
10.499704122543335,-9.18,-28.06,-6.82,30.3
10.505827188491821,-25.93,-22.18,-3.79,34.33
10.516751050949097,-39.92,-21.8,-2.22,45.53
10.528356075286865,-41.31,-32.36,2.4,52.53
10.536395072937012,-39.88,-37.49,12.71,56.19
10.547993898391724,-38.41,-31.49,23.83,55.08
10.556491136550903,-32.9,-27.79,30.14,52.56
10.567440032958984,-26.33,-28.59,30.6,49.46
10.599833965301514,-21.44,-28.99,29.47,46.56
10.60195517539978,-18.25,-28.11,27.25,43.19
10.603708028793335,-14.25,-28.1,22.78,38.87
10.607322931289673,-9.06,-28.94,17.15,34.83
10.616332054138184,-3.86,-28.83,11.82,31.39
10.627259016036987,0.7,-27.95,7.17,28.86
10.636551141738892,4.4,-27.45,3.37,28.0
10.646589040756226,7.23,-27.05,0.44,28.0
10.656991004943848,9.42,-26.48,-1.79,28.16
10.667194128036499,11.07,-25.83,-3.59,28.33
10.69707989692688,12.1,-25.26,-5.22,28.49
10.699450969696045,12.63,-24.79,-6.41,28.55
10.701210021972656,12.89,-24.31,-7.29,28.46
10.706854104995728,13.16,-24.06,-7.9,28.53
10.717032194137573,12.84,-23.98,-7.93,28.33
10.727226972579956,11.84,-23.71,-7.38,27.51
10.737199068069458,10.53,-23.19,-6.7,26.33
10.747115850448608,9.6,-22.69,-6.02,25.36
10.757497072219849,9.34,-22.38,-5.81,24.93
10.767616033554077,9.29,-22.17,-6.16,24.81
10.799986124038696,9.45,-21.93,-6.61,24.77
10.802302122116089,9.59,-21.34,-6.69,24.33
10.80406904220581,9.85,-20.63,-6.58,23.78
10.807322978973389,10.63,-20.1,-6.48,23.64
10.818043947219849,11.91,-19.81,-6.41,23.98
10.829472064971924,13.16,-19.34,-6.57,24.29
10.838629007339478,14.28,-18.55,-6.68,24.34
10.84960389137268,15.35,-17.98,-6.58,24.53
10.858290910720825,16.02,-17.5,-6.33,24.55
10.8698570728302,16.22,-16.84,-5.45,24.0
10.899561166763306,15.95,-15.66,-3.31,22.59
10.90186095237732,15.06,-13.75,-0.55,20.4
10.903625011444092,14.26,-10.79,1.99,17.99
10.908643007278442,15.38,-7.09,4.37,17.49
10.918927907943726,18.03,-3.73,6.53,19.53
10.929039001464844,20.69,-1.07,7.33,21.97
10.938709020614624,23.67,1.43,7.51,24.87
10.949528932571411,27.82,3.87,9.58,29.67
10.959912061691284,32.22,6.23,12.62,35.15
10.969506025314331,37.1,8.44,14.99,40.89
10.999359846115112,42.12,9.78,16.65,46.33
11.00165605545044,45.73,10.8,17.41,50.1
11.003416061401367,49.17,13.09,20.05,54.69
11.00891900062561,53.24,16.43,23.03,60.28
11.019295930862427,59.97,17.15,25.98,67.56
11.030636072158813,64.06,13.52,26.93,70.79
11.038918018341064,60.24,7.95,23.63,65.19
11.050332069396973,52.04,2.76,18.68,55.35
11.059015035629272,42.2,-0.19,13.77,44.39
11.069205045700073,32.16,-0.49,9.33,33.48
11.099622964859009,23.69,1.47,6.29,24.55
11.101762056350708,17.76,4.44,4.5,18.85
11.103440999984741,14.65,6.9,4.12,16.7
11.109698057174683,13.88,7.8,4.51,16.54
11.11949896812439,13.76,7.25,4.63,16.22
11.130146026611328,13.38,6.23,4.3,15.37
11.140205144882202,12.68,5.27,3.97,14.29
11.149626016616821,11.94,4.09,3.49,13.09
11.160889863967896,11.35,2.28,3.09,11.98
11.169601202011108,11.08,0.2,2.94,11.46
11.198828935623169,11.16,-1.63,3.09,11.69
11.201194047927856,11.85,-3.35,3.41,12.77
11.202962160110474,12.71,-5.47,3.44,14.25
11.209938049316406,13.58,-7.89,3.22,16.03
11.220571041107178,14.5,-10.4,2.7,18.04
11.230030059814453,15.39,-12.98,2.17,20.24
11.240746021270752,16.12,-15.52,1.38,22.41
11.250066041946411,16.69,-17.9,0.58,24.48
11.261404991149902,17.28,-20.11,-0.21,26.51
11.270524024963379,17.96,-22.13,-1.05,28.52
11.299544095993042,18.73,-24.27,-1.94,30.71
11.301941156387329,19.6,-26.58,-2.59,33.12
11.303713083267212,20.17,-28.81,-3.2,35.31
11.310383081436157,20.26,-30.72,-3.67,36.98
11.321202039718628,19.94,-32.11,-4.06,38.01
11.330855131149292,18.95,-32.94,-4.17,38.23
11.340865850448608,17.88,-33.38,-3.9,38.06
11.35211706161499,17.22,-33.42,-3.46,37.75
11.361107110977173,17.02,-32.7,-3.24,37.0
11.372481107711792,17.04,-31.72,-3.61,36.18
11.400217056274414,17.24,-31.21,-4.53,35.94
11.40256404876709,17.13,-31.15,-5.82,36.02
11.404327154159546,15.75,-30.99,-7.09,35.47
11.413172960281372,13.68,-30.21,-7.91,34.09
11.42157506942749,11.02,-29.73,-7.9,32.67
11.430623054504395,5.2,-28.9,-8.54,30.58
11.440378904342651,-5.71,-24.96,-9.7,27.38
11.450928926467896,-18.33,-20.01,-8.73,28.5
11.461580038070679,-27.88,-21.57,-6.22,35.79
11.471482038497925,-32.35,-31.59,-3.22,45.33
11.504122972488403,-34.85,-38.3,5.15,52.03
11.506386041641235,-40.25,-33.68,16.74,55.08
11.508193969726562,-41.78,-28.22,24.37,55.99
11.511797189712524,-37.99,-27.73,25.44,53.47
11.521329164505005,-32.77,-28.23,22.64,48.81
11.531496047973633,-27.57,-28.37,18.07,43.49
11.542006969451904,-22.52,-29.29,12.16,38.89
11.551666021347046,-17.2,-30.18,6.0,35.25
11.562237977981567,-11.5,-30.0,1.36,32.15
11.571915864944458,-5.92,-29.36,-1.86,30.0
11.602689981460571,-0.59,-29.26,-4.03,29.54
11.605026006698608,4.27,-29.38,-5.57,30.2
11.60680603981018,8.14,-29.5,-6.58,31.3
11.613227128982544,10.88,-29.53,-6.89,32.21
11.621823072433472,12.82,-29.31,-6.91,32.72
11.63273310661316,14.13,-28.78,-7.13,32.84
11.6419198513031,14.83,-28.14,-7.41,32.66
11.652721166610718,15.17,-27.52,-7.57,32.32
11.662494897842407,15.48,-27.24,-7.62,32.24
11.672765970230103,15.79,-27.41,-7.52,32.51
11.701773881912231,16.12,-27.54,-7.16,32.7
11.70412802696228,15.92,-27.25,-6.81,32.28
11.70587706565857,14.93,-26.1,-6.31,30.72
11.712990045547485,13.67,-24.23,-5.45,28.34
11.722808122634888,12.48,-22.34,-4.7,26.01
11.732058048248291,11.43,-20.6,-4.35,23.95
11.741885900497437,10.85,-19.23,-4.31,22.49
11.752425909042358,10.66,-18.25,-4.54,21.61
11.761977910995483,10.83,-17.56,-4.68,21.15
11.772723913192749,11.65,-16.9,-4.74,21.06
11.805123090744019,12.57,-16.51,-4.76,21.28
11.8074209690094,13.32,-16.47,-4.57,21.66
11.809069871902466,13.63,-16.49,-4.02,21.76
11.813467979431152,13.8,-16.18,-2.9,21.46
11.829446077346802,14.45,-15.78,-0.95,21.41
11.83296513557434,14.1,-13.88,-0.05,19.78
11.842979192733765,12.71,-10.22,-0.71,16.32
11.853756189346313,12.07,-6.16,-0.93,13.58
11.864731073379517,12.39,-2.31,1.3,12.67
11.873200178146362,13.89,0.59,5.16,14.82
11.904903173446655,17.83,1.65,6.68,19.11
11.907323122024536,23.12,0.59,10.19,25.27
11.909182071685791,27.56,0.03,13.95,30.88
11.913667917251587,28.15,1.93,15.61,32.24
11.923249959945679,26.59,4.38,20.89,34.09
11.933922052383423,25.61,5.79,26.26,37.13
11.943675994873047,26.56,6.45,29.64,40.31
11.953510046005249,30.2,7.03,32.26,44.74
11.965108156204224,34.62,10.31,33.93,49.55
11.973571062088013,42.69,14.73,35.49,57.43
12.003383874893188,53.81,15.4,33.51,65.23
12.005547046661377,58.87,12.94,25.32,65.37
12.007291078567505,56.13,9.25,18.15,59.71
12.013941049575806,46.83,6.61,13.76,49.25
12.024718999862671,34.65,6.34,9.38,36.45
12.034053087234497,23.8,6.7,6.04,25.45
12.04411005973816,16.29,6.72,6.3,18.71
12.05390191078186,11.35,7.41,6.66,15.1
12.06368899345398,9.48,8.29,7.56,14.68
12.073795080184937,10.07,8.42,9.13,15.98
12.105690002441406,11.26,7.86,9.77,16.85
12.108023881912231,12.32,6.98,10.02,17.34
12.109812021255493,12.91,5.83,9.84,17.24
12.114400148391724,12.79,4.36,9.23,16.36
12.130647897720337,12.1,2.62,8.74,15.15
12.134592056274414,11.26,0.93,8.4,14.07
12.144641160964966,11.29,-1.0,8.14,13.95
12.156031847000122,12.3,-3.32,7.56,14.81
12.165304899215698,13.8,-5.58,6.52,16.25
12.175964117050171,15.5,-7.68,5.05,18.02
12.205651998519897,17.43,-9.82,3.37,20.28
12.208096027374268,19.19,-12.03,1.58,22.7
12.209910154342651,20.79,-14.42,-0.21,25.3
12.214787006378174,21.81,-16.85,-1.81,27.62
12.23039698600769,22.24,-18.99,-3.22,29.42
12.235383987426758,22.3,-20.86,-4.33,30.84
12.245102167129517,22.4,-22.55,-5.23,32.21
12.256492853164673,22.53,-24.12,-6.07,33.55
12.265240907669067,22.77,-25.53,-6.48,34.81
12.275624990463257,23.13,-26.58,-6.37,35.8
12.305064916610718,23.99,-27.37,-6.07,36.89
12.307480096817017,24.76,-28.36,-5.57,38.05
12.3089120388031,25.21,-29.55,-4.61,39.11
12.315216064453125,25.4,-30.74,-3.45,40.02
12.326183080673218,26.17,-31.81,-2.69,41.27
12.337030172348022,27.24,-32.64,-3.0,42.61
12.345532178878784,28.27,-33.39,-4.25,43.95
12.356523990631104,28.1,-34.43,-5.47,44.77
12.367098093032837,25.69,-35.12,-5.59,43.87
12.376514196395874,20.45,-35.08,-4.92,40.9
12.405611038208008,12.02,-33.87,-4.34,36.2
12.408026933670044,0.65,-32.64,-3.42,32.82
12.409600019454956,-11.76,-34.07,-2.72,36.14
12.415863990783691,-23.53,-40.83,-7.65,47.74
12.430771112442017,-30.94,-45.18,-4.49,54.94
12.436272859573364,-35.1,-43.09,11.09,56.67
12.44605302810669,-38.41,-38.77,19.43,57.93
12.456773042678833,-36.66,-39.45,19.92,57.42
12.467610120773315,-31.55,-39.38,17.44,53.38
12.476152181625366,-25.01,-35.3,14.24,45.54
12.506188154220581,-16.9,-32.07,9.63,37.5
12.508291959762573,-8.17,-30.21,4.57,31.62
12.510009050369263,-1.05,-28.22,0.45,28.24
12.515964031219482,3.85,-26.01,-2.52,26.41
12.530272006988525,6.88,-24.05,-4.46,25.4
12.536248922348022,8.95,-22.5,-5.71,24.87
12.545944929122925,10.44,-21.79,-6.35,24.98
12.55612587928772,11.56,-21.8,-6.36,25.48
12.566377878189087,11.95,-21.79,-5.99,25.56
12.576590061187744,12.11,-21.75,-5.34,25.46
12.60819411277771,12.95,-22.2,-4.94,26.17
12.610538005828857,14.79,-22.96,-5.1,27.78
12.612403154373169,17.18,-23.63,-5.87,29.79
12.616507053375244,18.72,-24.18,-6.52,31.26
12.628743886947632,19.35,-24.44,-6.98,31.94
12.637248992919922,19.45,-24.29,-7.27,31.95
12.64785885810852,18.84,-23.8,-7.45,31.25
12.656928062438965,17.61,-23.16,-7.64,30.08
12.668259859085083,16.35,-22.78,-7.52,29.03
12.67829704284668,14.8,-22.37,-6.91,27.69
12.707093954086304,12.97,-21.51,-6.09,25.84
12.70940613746643,11.17,-20.29,-5.24,23.74
12.711258172988892,9.49,-18.8,-4.64,21.56
12.716678857803345,8.33,-17.52,-4.18,19.84
12.730074167251587,7.89,-16.87,-3.53,18.95
12.736845970153809,7.91,-16.73,-2.92,18.73
12.74691891670227,8.11,-16.76,-2.3,18.76
12.757589101791382,8.54,-16.72,-1.42,18.82
12.767210006713867,9.15,-16.57,0.07,18.92
12.777276992797852,9.92,-15.95,2.37,18.93
12.808830976486206,11.25,-14.62,4.11,18.89
12.811213970184326,13.31,-12.98,4.79,19.19
12.81324315071106,15.17,-10.53,4.72,19.06
12.817903995513916,16.61,-7.34,4.5,18.7
12.828707933425903,15.89,-5.29,4.54,17.35
12.83942699432373,14.24,-4.45,5.85,16.02
12.847961187362671,13.67,-3.6,7.84,16.16
12.85918402671814,15.46,-2.22,7.59,17.36
12.869598150253296,20.06,-1.89,5.9,20.99
12.878458976745605,25.82,-3.7,3.47,26.31
12.909975051879883,30.8,-5.56,1.23,31.32
12.912147045135498,35.69,-6.16,0.6,36.22
12.91404104232788,40.96,-6.19,-0.1,41.42
12.918614149093628,46.42,-7.46,-0.29,47.01
12.928642988204956,50.74,-9.8,1.21,51.69
12.938436031341553,51.73,-11.09,3.96,53.05
12.95006012916565,49.34,-9.18,6.92,50.66
12.9585280418396,46.02,-5.25,9.58,47.29
12.970080137252808,43.58,-2.11,10.72,44.92
12.97901701927185,40.64,0.67,10.03,41.86
13.009039163589478,36.62,3.21,8.51,37.73
13.011044025421143,32.01,5.3,6.83,33.15
13.012839078903198,27.56,7.11,6.0,29.08
13.01884913444519,23.96,8.57,5.96,26.13
13.030501127243042,21.24,9.41,6.51,24.12
13.03888201713562,19.17,9.65,7.5,22.73
13.050472021102905,17.98,9.62,8.53,22.1
13.059445142745972,17.89,8.92,9.41,22.09
13.069320917129517,18.46,7.2,9.92,22.15
13.080564975738525,19.1,4.71,9.36,21.78
13.108384847640991,19.06,2.09,8.4,20.93
13.110613107681274,18.8,-0.42,7.3,20.17
13.112448930740356,18.42,-3.3,5.95,19.63
13.119314908981323,17.98,-6.77,4.37,19.7
13.13120698928833,17.58,-10.5,2.4,20.61
13.13982105255127,17.5,-14.16,0.42,22.51
13.15054702758789,18.02,-17.67,-1.59,25.28
13.159532070159912,18.46,-20.43,-3.28,27.72
13.170269966125488,18.8,-22.67,-4.36,29.77
13.181031942367554,19.61,-25.72,-5.18,32.75
13.208456039428711,20.78,-29.95,-5.92,36.93
13.210592985153198,21.25,-33.89,-6.26,40.48
13.212054967880249,20.51,-36.27,-6.14,42.11
13.219699144363403,19.15,-37.59,-5.83,42.58
13.231503009796143,18.15,-38.75,-5.7,43.16
13.24005389213562,17.48,-39.95,-6.03,44.02
13.250332117080688,16.63,-40.67,-6.46,44.41
13.26137900352478,15.63,-40.61,-6.64,44.01
13.270051002502441,14.69,-40.32,-6.35,43.37
13.281078100204468,13.86,-40.18,-5.78,42.89
13.310619115829468,13.29,-40.05,-5.11,42.5
13.312835931777954,12.95,-39.61,-4.44,41.9
13.314663171768188,12.03,-38.4,-4.13,40.45
13.32032299041748,10.97,-36.65,-4.46,38.51
13.330761194229126,10.1,-35.93,-5.4,37.71
13.34210991859436,7.05,-34.21,-7.4,35.7
13.349997997283936,-0.37,-30.72,-9.96,32.29
13.360128164291382,-12.67,-24.83,-10.81,29.89
13.37033200263977,-25.53,-18.67,-8.23,32.68
13.380918979644775,-34.29,-22.16,-4.84,41.11
13.412280082702637,-39.37,-32.1,-0.35,50.79
13.41440200805664,-45.91,-32.26,6.75,56.51
13.416202068328857,-50.54,-25.38,14.67,58.42
13.420779943466187,-48.81,-22.93,17.93,56.83
13.432682991027832,-43.45,-23.73,16.33,52.13
13.441298007965088,-37.83,-24.39,12.46,46.7
13.452390909194946,-32.97,-25.15,7.41,42.12
13.46106505393982,-27.7,-26.51,2.29,38.4
13.47121000289917,-22.59,-27.88,-2.33,35.95
13.480857133865356,-17.69,-28.25,-5.52,33.78
13.511099100112915,-12.4,-28.37,-7.13,31.77
13.513561010360718,-7.37,-28.73,-7.47,30.58
13.515412092208862,-3.1,-28.9,-7.02,29.9
13.52129602432251,0.4,-29.11,-6.35,29.79
13.532017946243286,3.63,-29.62,-5.72,30.38
13.542516946792603,6.58,-30.29,-5.08,31.4
13.551440954208374,8.96,-30.79,-4.73,32.41
13.561851978302002,10.61,-30.84,-4.28,32.89
13.57310700416565,11.18,-30.4,-3.86,32.61
13.582546949386597,10.99,-29.77,-3.65,31.94
13.612036943435669,10.62,-29.37,-3.51,31.42
13.614160060882568,10.32,-29.17,-3.29,31.11
13.615974187850952,10.37,-28.89,-2.98,30.83
13.622159004211426,10.67,-28.38,-2.82,30.45
13.632191896438599,10.86,-27.46,-2.79,29.66
13.643449068069458,11.01,-26.24,-2.69,28.58
13.65248703956604,10.74,-24.75,-2.63,27.1
13.662328004837036,10.03,-22.81,-2.65,25.05
13.67272400856018,9.32,-20.96,-2.75,23.1
13.682159185409546,8.9,-19.68,-2.89,21.79
13.713358163833618,8.88,-19.09,-2.95,21.25
13.715453863143921,8.86,-18.56,-2.95,20.77
13.71713399887085,8.63,-17.9,-3.09,20.11
13.72181487083435,8.28,-17.4,-3.29,19.54
13.732244968414307,8.11,-17.23,-3.46,19.35
13.742233991622925,8.0,-17.04,-3.56,19.15
13.752081155776978,7.15,-15.69,-3.22,17.54
13.76257586479187,6.22,-13.3,-2.25,14.85
13.772308111190796,6.16,-10.9,-1.05,12.56
13.78261113166809,7.39,-8.42,-0.57,11.21
13.813222169876099,10.47,-6.61,-1.51,12.47
13.81532907485962,15.16,-6.35,-2.64,16.64
13.817084074020386,22.33,-7.72,-2.61,23.77
13.822820901870728,31.36,-9.44,-1.21,32.77
13.834428071975708,40.69,-9.76,2.14,41.89
13.843663930892944,46.96,-8.27,6.73,48.15
13.853721857070923,47.62,-6.01,10.79,49.19
13.863079071044922,44.38,-4.59,14.36,46.87
13.874614953994751,42.2,-5.32,16.65,45.67
13.88455319404602,43.5,-9.19,16.35,47.37
13.91292405128479,47.05,-14.13,14.2,51.13
13.91509199142456,50.25,-17.21,12.52,54.57
13.91687297821045,50.32,-16.33,10.98,54.03
13.923645973205566,47.72,-13.29,9.11,50.36
13.934212923049927,43.93,-10.38,7.18,45.7
13.943411111831665,39.04,-7.18,5.22,40.03
13.954061031341553,33.07,-3.78,3.33,33.45
13.964187860488892,26.97,-0.16,2.14,27.05
13.973443031311035,21.45,3.52,2.08,21.83
13.98538088798523,17.18,6.73,3.2,18.72
14.013535022735596,14.66,8.75,5.03,17.79
14.015700101852417,13.88,9.14,6.92,18.0
14.017518997192383,14.36,8.29,8.51,18.63
14.02377700805664,15.22,6.76,9.51,19.17
14.034759044647217,15.77,4.92,10.45,19.54
14.045305967330933,15.88,2.86,10.96,19.5
14.053963899612427,15.56,0.25,10.7,18.88
14.065632104873657,15.05,-3.14,9.64,18.14
14.073920965194702,14.3,-6.74,8.06,17.74
14.084599018096924,13.48,-10.04,6.3,17.94
14.115231990814209,12.93,-12.9,4.78,18.87
14.11739206314087,12.64,-15.6,3.47,20.37
14.119174003601074,12.7,-18.27,2.21,22.35
14.124322175979614,13.16,-21.06,1.08,24.85
14.134770154953003,13.99,-24.09,0.09,27.85
14.144911050796509,14.97,-27.5,-0.95,31.32
14.154581069946289,15.67,-30.73,-2.02,34.55
14.164788007736206,15.83,-33.15,-2.88,36.84
14.174811124801636,15.44,-35.07,-3.74,38.5
14.185100078582764,14.81,-36.83,-4.57,39.95
14.215696096420288,14.01,-38.49,-5.29,41.3
14.21765685081482,12.95,-39.72,-5.64,42.15
14.219373941421509,11.65,-40.26,-5.53,42.27
14.224754095077515,10.41,-40.38,-5.08,42.0
14.235189199447632,9.25,-40.27,-4.08,41.51
14.245396852493286,8.67,-39.74,-2.76,40.76
14.255565881729126,9.11,-38.84,-1.85,39.93
14.265025854110718,10.3,-37.92,-2.12,39.35
14.275407075881958,11.84,-37.33,-3.59,39.32
14.286493062973022,12.08,-36.81,-5.96,39.19
14.315036058425903,10.53,-36.12,-8.06,38.47
14.317196130752563,6.33,-35.68,-9.8,37.53
14.31897497177124,-2.64,-33.06,-11.2,35.0
14.3247549533844,-18.16,-25.4,-10.73,33.01
14.335240125656128,-34.9,-13.95,-5.24,37.94
14.346719980239868,-41.6,-15.58,0.35,44.42
14.355992078781128,-38.49,-33.24,6.05,51.21
14.366155862808228,-40.92,-40.6,16.54,59.96
14.375445127487183,-50.05,-29.04,28.74,64.6
14.3874990940094,-51.3,-22.13,33.31,65.04
14.416281938552856,-44.14,-25.21,29.86,58.95
14.418617010116577,-36.55,-28.7,22.83,51.77
14.420423984527588,-31.34,-29.21,15.57,45.58
14.425780057907104,-25.79,-29.28,8.44,39.92
14.436157941818237,-19.52,-30.45,2.4,36.24
14.446135997772217,-14.14,-31.74,-2.1,34.81
14.45671796798706,-9.26,-32.2,-4.99,33.87
14.467045068740845,-4.36,-32.48,-6.68,33.44
14.477463006973267,0.25,-32.84,-7.88,33.77
14.486294984817505,4.07,-33.18,-8.58,34.51
14.51741099357605,6.87,-33.29,-8.46,35.02
14.519764184951782,8.99,-33.12,-7.43,35.11
14.521570920944214,10.34,-32.74,-5.93,34.84
14.526620149612427,11.1,-32.19,-4.37,34.32
14.536388158798218,11.52,-31.33,-2.89,33.5
14.548248052597046,11.91,-30.3,-1.92,32.61
14.55640196800232,12.46,-29.52,-1.48,32.07
14.56686806678772,13.11,-28.75,-1.48,31.63
14.577960968017578,13.41,-27.91,-1.55,31.0
14.586652994155884,13.39,-27.01,-1.54,30.18
14.61809515953064,12.74,-25.73,-1.48,28.74
14.620444059371948,11.36,-23.74,-1.45,26.35
14.622236967086792,9.89,-21.72,-1.48,23.91
14.626626968383789,8.96,-20.42,-1.67,22.36
14.636458158493042,8.17,-19.42,-1.87,21.15
14.647043943405151,7.45,-18.56,-2.04,20.1
14.65656590461731,6.83,-18.41,-2.04,19.74
14.667328119277954,6.04,-17.51,-1.78,18.6
14.677008867263794,6.07,-16.51,-1.74,17.67
14.687114953994751,6.41,-16.57,-2.36,17.92
14.718672037124634,7.06,-15.96,-2.92,17.69
14.720991849899292,7.59,-14.28,-2.7,16.39
14.722822904586792,8.09,-12.58,-1.77,15.06
14.72677493095398,8.79,-11.46,-0.06,14.44
14.737020015716553,10.05,-10.87,1.43,14.87
14.747236013412476,12.64,-10.78,2.08,16.74
14.75780987739563,17.49,-9.8,3.07,20.28
14.76899790763855,24.83,-7.95,4.39,26.43
14.778848886489868,33.54,-6.75,6.96,34.91
14.788228988647461,41.4,-7.66,11.83,43.73
14.817877054214478,45.28,-9.61,15.61,48.84
14.82027006149292,43.21,-10.56,16.93,47.59
14.822069883346558,37.06,-9.28,15.6,41.26
14.82780909538269,33.68,-6.67,13.5,36.89
14.83864712715149,37.41,-6.87,11.58,39.75
14.847931146621704,46.4,-9.75,10.15,48.48
14.85857892036438,55.82,-10.8,8.83,57.53
14.86961817741394,61.75,-9.7,6.83,62.87
14.878248929977417,62.38,-8.83,4.9,63.19
14.890055894851685,56.08,-7.85,2.27,56.67
14.91898798942566,44.62,-5.35,0.99,44.95
14.921380996704102,32.58,-2.55,1.7,32.72
14.923197984695435,22.47,0.16,3.28,22.7
14.931949853897095,15.43,3.38,5.41,16.69
14.937811136245728,11.74,6.33,7.4,15.25
14.948019981384277,11.1,7.81,8.2,15.85
14.958071947097778,12.79,7.7,8.32,17.09
14.969276189804077,15.24,6.72,8.19,18.56
14.98007607460022,16.98,5.72,8.24,19.72
14.990019083023071,17.87,4.48,8.47,20.27
15.01892900466919,18.05,2.29,8.73,20.18
15.021261930465698,17.73,-1.25,8.56,19.72
15.023046016693115,16.81,-5.02,7.73,19.17
15.029404878616333,15.94,-8.28,6.45,19.08
15.039486169815063,15.21,-11.28,4.68,19.5
15.048936128616333,15.1,-14.12,2.63,20.83
15.059400081634521,15.41,-16.7,0.44,22.72
15.069622039794922,15.95,-19.2,-1.57,25.01
15.0796480178833,16.67,-21.63,-3.2,27.49
15.090681076049805,17.47,-24.2,-4.45,30.17
15.119622945785522,18.49,-27.43,-5.39,33.51
15.121925115585327,19.3,-31.37,-5.98,37.31
15.123669862747192,19.27,-35.26,-6.41,40.69
15.131776094436646,18.0,-37.78,-6.6,42.36
15.139642000198364,15.82,-38.8,-6.54,42.4
15.149783849716187,13.53,-39.0,-6.32,41.76
15.159934997558594,11.41,-38.54,-6.22,40.67
15.170038938522339,9.79,-37.35,-6.13,39.09
15.179825067520142,9.13,-36.02,-5.66,37.58
15.190322160720825,9.34,-35.14,-4.91,36.69
15.218056917190552,10.01,-34.62,-4.2,36.28
15.2204110622406,10.85,-34.03,-3.89,35.92
15.221927881240845,11.77,-33.56,-3.76,35.76
15.230865001678467,12.5,-33.19,-3.48,35.63
15.240502119064331,12.17,-32.57,-3.42,34.93
15.24994707107544,9.44,-30.84,-3.61,32.45
15.259675979614258,3.71,-27.42,-3.93,27.94
15.269834041595459,-6.39,-21.82,-4.94,23.26
15.279749155044556,-18.8,-14.4,-4.75,24.15
15.290647983551025,-28.06,-15.23,-5.74,32.43
15.322045087814331,-36.87,-26.14,-8.11,45.91
15.324544191360474,-53.91,-25.29,-2.33,59.59
15.326389074325562,-62.28,-18.79,9.98,65.81
15.330862998962402,-53.09,-22.96,18.29,60.66
15.340589046478271,-39.86,-25.45,20.5,51.54
15.350681066513062,-30.13,-20.98,18.6,41.15
15.360486030578613,-22.88,-16.83,13.48,31.43
15.370341062545776,-15.73,-16.87,6.64,24.0
15.380159139633179,-9.88,-18.79,-0.52,21.23
15.390115976333618,-5.63,-20.98,-6.51,22.67
15.421133995056152,-2.64,-23.16,-9.77,25.27
15.423469066619873,-0.74,-24.36,-10.01,26.34
15.425281047821045,-0.37,-24.99,-8.44,26.37
15.430681943893433,-1.1,-25.91,-6.6,26.76
15.440498113632202,-1.27,-26.61,-4.64,27.04
15.450721979141235,-0.4,-26.37,-3.0,26.54
15.460489988327026,1.18,-25.61,-2.03,25.71
15.470507860183716,2.52,-24.71,-1.81,24.9
15.481385946273804,3.66,-23.46,-2.07,23.83
15.490864992141724,4.46,-22.22,-2.55,22.8
15.521975040435791,5.02,-21.4,-3.29,22.22
15.5242760181427,5.69,-20.92,-4.37,22.11
15.526098012924194,6.39,-20.85,-5.5,22.49
15.531596899032593,6.77,-20.87,-6.36,22.84
15.541516065597534,6.83,-20.62,-6.77,22.75
15.551321029663086,6.3,-20.16,-6.9,22.21
15.560986995697021,5.29,-19.41,-6.97,21.29
15.571416139602661,4.41,-18.52,-6.97,20.27
15.581470012664795,3.96,-17.85,-7.02,19.58
15.591787099838257,3.85,-17.49,-7.16,19.28
15.62474799156189,3.87,-17.46,-7.42,19.36
15.627161026000977,3.99,-17.48,-7.67,19.5
15.62899398803711,4.25,-17.25,-7.71,19.36
15.631630182266235,4.84,-17.05,-7.55,19.26
15.64729619026184,5.8,-17.95,-6.77,20.04
15.651954889297485,6.97,-18.95,-5.34,20.88
15.662503957748413,8.8,-19.11,-4.05,21.42
15.672600030899048,10.01,-19.01,-3.14,21.71
15.68406891822815,10.33,-17.45,-2.4,20.41
15.692672967910767,10.69,-15.24,-1.01,18.64
15.722840070724487,11.33,-13.4,0.94,17.57
15.725064039230347,12.12,-11.02,1.71,16.46
15.726877927780151,13.25,-8.22,1.12,15.63
15.732578039169312,14.71,-5.32,-0.35,15.64
15.742995023727417,17.96,-3.89,-2.81,18.59
15.752692937850952,23.07,-6.05,-4.85,24.33
15.762579202651978,28.48,-9.6,-5.37,30.53
15.773907899856567,33.75,-11.41,-3.53,35.8
15.782706022262573,38.85,-10.55,-1.28,40.27
15.793244123458862,42.83,-7.53,1.1,43.5
15.825515031814575,45.18,-4.2,3.72,45.52
15.827736139297485,46.91,-1.78,6.98,47.45
15.829429864883423,48.98,2.91,11.95,50.5
15.833132982254028,52.42,8.73,18.88,56.39
15.848849058151245,58.69,10.66,25.03,64.68
15.853448152542114,65.7,8.4,27.86,71.85
15.864459037780762,66.64,6.49,25.77,71.74
15.873242139816284,57.81,5.82,21.41,61.92
15.88429307937622,43.97,5.5,17.14,47.51
15.89336895942688,30.64,4.28,14.65,34.23
15.923282861709595,18.96,3.37,13.24,23.36
15.925583124160767,9.59,4.25,11.88,15.84
15.927408933639526,3.81,6.29,10.82,13.08
15.933073043823242,2.04,7.78,9.93,12.77
15.943283081054688,3.33,8.42,8.69,12.54
15.953150033950806,5.69,8.47,6.99,12.36
15.96328616142273,9.02,7.83,5.83,13.29
15.973818063735962,12.82,6.05,4.91,15.0
15.983994007110596,15.65,3.46,4.08,16.53
15.995297193527222,17.08,0.57,3.78,17.5
16.026159048080444,17.55,-1.94,4.06,18.11
16.02840495109558,17.4,-4.51,4.4,18.5
16.03021788597107,16.79,-7.19,4.61,18.83
16.034358978271484,16.35,-9.8,4.53,19.59
16.0450119972229,16.22,-11.98,4.19,20.59
16.054145097732544,16.73,-13.9,3.72,22.06
16.06464695930481,17.59,-15.83,3.07,23.86
16.07547402381897,18.81,-18.13,2.07,26.2
16.08414602279663,20.08,-21.16,0.79,29.18
16.095317125320435,21.18,-24.9,-0.38,32.69
16.12638807296753,22.43,-29.12,-1.43,36.78
16.128777027130127,23.17,-33.45,-3.05,40.8
16.130654096603394,22.55,-36.67,-5.02,43.34
16.13446593284607,21.38,-38.77,-6.49,44.74
16.144695043563843,19.59,-40.32,-7.6,45.46
16.15618920326233,16.95,-40.77,-7.99,44.87
16.164486169815063,14.11,-39.48,-7.19,42.53
16.176183938980103,11.91,-37.59,-5.97,39.88
16.184542894363403,11.05,-36.09,-4.62,38.02
16.195635080337524,11.79,-35.32,-3.59,37.4
16.227118968963623,12.84,-34.97,-3.28,37.39
16.229299068450928,12.33,-33.71,-3.93,36.1
16.23114800453186,10.11,-31.42,-5.3,33.42
16.234519004821777,4.54,-28.2,-7.54,29.54
16.24439311027527,-6.34,-22.27,-9.7,25.1
16.25469994544983,-18.53,-16.27,-8.67,26.13
16.264507055282593,-28.11,-18.44,-5.77,34.11
16.27639889717102,-38.68,-28.44,-6.4,48.43
16.28494906425476,-52.47,-31.34,-1.72,61.14
16.295855045318604,-60.03,-30.21,9.64,67.89
16.326416969299316,-55.92,-32.33,17.51,66.92
16.328602075576782,-46.47,-32.09,19.77,59.83
16.330465078353882,-36.03,-30.63,17.88,50.55
16.335603952407837,-27.24,-29.97,13.33,42.63
16.345623016357422,-20.93,-29.66,7.43,37.05
16.356878995895386,-15.95,-29.1,1.84,33.23
16.365576028823853,-10.44,-28.54,-2.67,30.5
16.375818014144897,-4.59,-28.72,-5.63,29.62
16.387160062789917,0.1,-29.03,-7.16,29.9
16.395581007003784,3.34,-28.58,-7.5,29.73
16.423206090927124,5.33,-27.77,-7.04,29.14
16.425584077835083,6.26,-27.02,-6.22,28.42
16.427430868148804,6.75,-26.29,-5.12,27.62
16.43554401397705,7.41,-25.97,-3.96,27.29
16.44535517692566,8.5,-26.21,-3.04,27.72
16.45553994178772,9.55,-26.6,-2.25,28.35
16.467447996139526,10.48,-26.87,-1.49,28.87
16.476299047470093,11.12,-26.95,-1.09,29.17
16.487589120864868,11.51,-26.55,-1.27,28.96
16.496341943740845,11.59,-25.47,-1.72,28.03
16.52659010887146,11.08,-24.03,-2.59,26.58
16.528752088546753,10.63,-22.82,-3.38,25.4
16.530587911605835,10.31,-21.71,-3.9,24.34
16.535627126693726,10.31,-20.74,-4.21,23.54
16.546229124069214,10.7,-20.47,-4.32,23.49
16.55630612373352,10.92,-20.42,-4.32,23.55
16.567761182785034,10.73,-20.17,-4.34,23.25
16.576629877090454,10.17,-19.8,-3.94,22.6
16.585896968841553,9.99,-18.16,-3.12,20.95
16.596611976623535,9.63,-16.16,-2.23,18.94
16.626796007156372,9.57,-14.13,-0.95,17.09
16.62892985343933,10.3,-13.02,0.09,16.6
16.630815029144287,10.92,-12.6,1.4,16.73
16.637165069580078,11.07,-11.01,2.85,15.87
16.648511171340942,11.54,-7.39,4.47,14.41
16.65680503845215,13.58,-3.01,6.99,15.56
16.6672420501709,17.51,1.13,10.13,20.26
16.67817997932434,22.26,4.82,12.48,25.97
16.687180995941162,28.15,6.49,15.25,32.66
16.699422121047974,34.39,5.24,18.17,39.24
16.728355169296265,37.22,3.67,19.34,42.1
16.730525016784668,36.17,4.18,19.76,41.42
16.732462167739868,34.86,5.69,20.85,41.01
16.737202882766724,35.95,6.88,21.73,42.56
16.748507976531982,39.97,6.82,22.63,46.43
16.758734941482544,45.56,4.85,23.67,51.57
16.767292022705078,49.67,2.2,22.94,54.75
16.77835488319397,51.32,-0.31,21.15,55.5
16.788989067077637,50.38,-1.52,17.36,53.3
16.798228979110718,47.12,-2.58,12.3,48.76
16.828819036483765,41.06,-3.08,7.31,41.81
16.831002950668335,33.3,-1.09,3.72,33.52
16.83284592628479,24.16,2.94,1.51,24.38
16.837806940078735,16.4,7.9,1.03,18.23
16.848090887069702,12.22,11.89,3.39,17.38
16.859183073043823,11.57,12.52,6.38,18.2
16.869400024414062,12.78,10.37,8.25,18.4
16.878007173538208,13.69,8.37,9.37,18.58
16.88955807685852,14.29,7.32,10.3,19.07
16.898051977157593,14.9,6.15,10.94,19.48
16.928267002105713,15.37,4.41,10.52,19.14
16.930486917495728,15.82,1.68,9.42,18.48
16.93248701095581,15.91,-1.68,7.6,17.71
16.938565969467163,15.48,-5.24,5.36,17.19
16.9499351978302,14.9,-8.54,3.42,17.51
16.95833992958069,14.54,-11.23,2.17,18.49
16.969827890396118,14.57,-13.39,1.29,19.83
16.978482961654663,14.93,-15.17,0.51,21.29
16.989410161972046,15.84,-16.96,-0.12,23.2
17.000073194503784,17.5,-19.34,-0.71,26.09
17.027013063430786,19.58,-22.61,-1.16,29.93
17.029294967651367,21.02,-25.87,-1.83,33.38
17.031188011169434,21.87,-28.67,-2.44,36.14
17.038774967193604,22.02,-31.42,-2.93,38.47
17.049641847610474,21.52,-34.09,-3.37,40.45
17.058811902999878,20.32,-36.25,-3.66,41.71
17.07012391090393,18.51,-37.35,-3.73,41.85
17.079280138015747,16.7,-37.65,-3.82,41.36
17.088958024978638,15.06,-37.42,-3.86,40.52
17.10039496421814,14.12,-37.02,-3.57,39.78
17.130223989486694,14.0,-36.99,-3.49,39.7
17.132468938827515,14.62,-37.52,-3.89,40.45
17.134248971939087,15.58,-38.73,-4.25,41.96
17.14000105857849,15.54,-39.58,-4.28,42.73
17.14959406852722,13.64,-38.52,-4.29,41.08
17.159260988235474,9.71,-36.63,-5.09,38.23
17.169214010238647,2.72,-34.04,-6.58,34.77
17.17908215522766,-10.23,-28.68,-7.5,31.35
17.188950061798096,-26.0,-21.77,-5.32,34.32
17.200005054473877,-35.79,-21.48,-0.1,41.74
17.228199005126953,-35.86,-28.63,6.89,46.4
17.23040795326233,-33.98,-31.29,17.45,49.37
17.232439041137695,-35.15,-27.41,29.22,53.29
17.23984408378601,-33.22,-27.31,37.54,57.08
17.250406980514526,-29.54,-27.56,41.08,57.61
17.260464906692505,-25.85,-25.01,41.34,54.79
17.269926071166992,-21.34,-22.5,37.88,48.95
17.281388998031616,-14.87,-21.82,31.42,41.04
17.29011106491089,-7.52,-22.23,23.93,33.51
17.299774885177612,-2.01,-22.21,17.76,28.5
17.330186128616333,0.47,-22.39,13.18,25.98
17.332316160202026,1.98,-23.4,9.4,25.29
17.334073066711426,3.61,-25.09,5.55,25.94
17.339986085891724,5.49,-26.72,1.74,27.33
17.349733114242554,7.7,-27.76,-2.52,28.91
17.359956979751587,9.78,-28.22,-7.04,30.68
17.369863033294678,11.74,-28.23,-11.15,32.54
17.380100965499878,13.16,-27.48,-14.26,33.64
17.390360116958618,12.98,-26.09,-15.4,32.95
17.4006450176239,11.25,-24.46,-14.48,30.56
17.434769868850708,9.15,-23.42,-12.07,27.89
17.43688416481018,7.72,-23.55,-9.53,26.55
17.438657999038696,6.97,-24.57,-6.88,26.44
17.4413800239563,6.84,-25.42,-4.35,26.68
17.450877904891968,6.76,-25.39,-2.56,26.39
17.461413145065308,6.47,-24.7,-1.93,25.6
17.470679998397827,6.23,-23.49,-2.09,24.39
17.480452060699463,6.56,-22.16,-2.89,23.29
17.490478038787842,7.18,-21.37,-4.01,22.89
17.500946044921875,8.52,-21.32,-5.33,23.56
17.534581899642944,10.26,-21.31,-6.26,24.46
17.536708116531372,11.87,-20.55,-7.12,24.77
17.53849196434021,12.94,-19.29,-7.83,24.51
17.541388988494873,13.92,-17.97,-7.99,24.09
17.551449060440063,14.24,-17.34,-8.03,23.83
17.56191897392273,14.11,-17.4,-7.69,23.68
17.572144031524658,13.44,-17.21,-6.47,22.77
17.58126997947693,11.39,-14.89,-4.77,19.34
17.591413974761963,9.35,-10.87,-2.07,14.48
17.60152792930603,8.88,-7.73,0.62,11.78
17.6346218585968,11.29,-6.25,1.81,13.03
17.63670516014099,16.24,-5.48,1.37,17.19
17.638463020324707,20.96,-4.54,2.05,21.54
17.641709089279175,25.15,-3.67,3.85,25.7
17.6533100605011,29.55,-3.66,5.52,30.28
17.662412881851196,32.54,-1.93,6.74,33.28
17.67262601852417,34.7,2.4,7.07,35.49
17.6822350025177,39.89,4.21,7.59,40.82
17.692944049835205,46.93,3.36,8.81,47.86
17.70381808280945,49.51,6.0,10.58,50.98
17.73385500907898,51.43,11.56,15.73,55.01
17.735984086990356,56.73,15.73,21.88,62.8
17.73775601387024,62.97,17.93,25.42,70.23
17.74222707748413,63.04,17.39,24.64,69.88
17.753095865249634,56.35,14.03,17.88,60.76
17.762643098831177,51.97,8.9,13.62,54.45
17.773308038711548,42.92,5.51,14.82,45.73
17.783926010131836,28.54,6.53,19.01,34.9
17.79271388053894,17.04,7.62,20.32,27.59
17.803539037704468,11.83,6.63,19.86,24.04
17.832667112350464,9.24,6.14,18.75,21.78
17.83478307723999,8.11,6.03,17.51,20.21
17.836557149887085,7.56,5.88,14.88,17.69
17.84223699569702,6.36,5.66,11.18,14.05
17.852245092391968,6.91,5.09,7.54,11.42
17.86261796951294,9.22,4.18,4.28,10.99
17.872588872909546,11.84,3.19,1.08,12.3
17.884012937545776,13.97,1.64,-1.51,14.14
17.8944251537323,15.08,-0.61,-3.7,15.53
17.903809070587158,15.13,-2.98,-5.32,16.31
17.936065912246704,14.24,-5.38,-5.61,16.22
17.93838620185852,13.23,-7.33,-4.61,15.81
17.940206050872803,13.16,-9.16,-3.34,16.37
17.94314694404602,13.94,-11.72,-2.17,18.34
17.953314065933228,15.38,-14.78,-1.42,21.37
17.964234113693237,17.15,-17.78,-1.07,24.72
17.97403907775879,18.41,-20.44,-0.61,27.51
17.983896017074585,18.88,-22.49,-0.27,29.36
17.994911909103394,18.74,-23.68,-0.53,30.2
18.003485918045044,18.84,-24.74,-1.12,31.11
18.033901929855347,19.2,-26.58,-2.17,32.86
18.036338090896606,18.86,-28.59,-3.41,34.41
18.038172006607056,18.03,-29.74,-4.57,35.07
18.04407000541687,17.25,-30.7,-5.55,35.64
18.053884983062744,16.66,-31.77,-5.95,36.36
18.06478190422058,15.3,-31.8,-6.06,35.8
18.075382947921753,13.3,-30.54,-6.41,33.92
18.08394503593445,11.62,-29.32,-7.21,32.35
18.0955011844635,10.08,-28.82,-8.38,31.66
18.104045152664185,7.25,-29.15,-9.75,31.58
18.131603002548218,1.8,-29.06,-10.62,30.99
18.134010076522827,-6.97,-26.99,-10.33,29.72
18.135873079299927,-18.87,-21.48,-8.46,29.81
18.14486813545227,-29.84,-14.05,-5.59,33.45
18.155979871749878,-32.47,-14.33,-1.77,35.53
18.164721965789795,-31.97,-21.75,-0.3,38.66
18.175083875656128,-36.21,-24.44,1.86,43.72
18.186004877090454,-41.24,-23.97,6.86,48.19
18.1945321559906,-42.07,-25.83,9.24,50.22
18.206034898757935,-38.5,-27.71,8.14,48.12
18.234965085983276,-33.06,-29.04,6.04,44.41
18.237301111221313,-26.84,-28.79,3.23,39.49
18.239091157913208,-19.28,-28.43,-0.05,34.35
18.244714975357056,-11.21,-29.23,-3.17,31.46
18.256057024002075,-4.43,-29.87,-5.62,30.71
18.266547918319702,0.5,-29.86,-7.27,30.73
18.274755001068115,3.96,-29.41,-7.98,30.72
18.28633713722229,6.51,-28.65,-7.81,30.4
18.29454016685486,8.59,-27.62,-7.28,29.82
18.304625988006592,9.96,-26.58,-6.69,29.16
18.335432052612305,10.91,-25.59,-6.18,28.49
18.337759971618652,11.38,-24.78,-5.86,27.89
18.33960199356079,11.3,-24.17,-5.45,27.23
18.34474205970764,11.1,-23.84,-4.96,26.76
18.35469698905945,10.9,-23.52,-4.52,26.31
18.36516785621643,10.71,-22.84,-4.08,25.55
18.375012159347534,10.34,-21.78,-3.74,24.39
18.38495707511902,10.07,-20.58,-3.64,23.19
18.395724058151245,9.95,-19.56,-3.87,22.28
18.405304193496704,9.78,-18.81,-4.34,21.64
18.43808102607727,9.51,-18.0,-4.56,20.86
18.440405130386353,9.32,-16.84,-4.61,19.79
18.442162036895752,9.55,-15.76,-4.62,18.99
18.44514298439026,9.76,-15.74,-4.62,19.08
18.45582413673401,10.07,-14.81,-4.5,18.46
18.465476989746094,10.67,-13.03,-4.39,17.4
18.47657299041748,10.77,-11.51,-4.83,16.48
18.485859155654907,10.76,-9.84,-5.56,15.6
18.497915029525757,11.22,-7.92,-5.8,14.9
18.50631594657898,11.57,-6.02,-5.65,14.21
18.53780508041382,12.09,-4.35,-5.43,13.94
18.54011607170105,12.67,-3.15,-4.04,13.66
18.54184317588806,13.26,-1.52,-1.83,13.47
18.54653811454773,13.96,0.51,0.61,13.98
18.55629801750183,15.1,2.24,3.09,15.57
18.567928075790405,17.42,3.27,6.57,18.9
18.57806897163391,20.98,4.15,10.61,23.87
18.586405038833618,25.89,5.95,13.95,30.0
18.59637713432312,32.27,8.69,15.53,36.85
18.608256101608276,38.06,11.73,15.66,42.79
18.63701319694519,42.63,14.89,15.17,47.63
18.639244079589844,47.22,17.45,15.39,52.64
18.640928983688354,50.97,19.25,16.78,57.0
18.64679217338562,54.57,22.6,19.69,62.26
18.657093048095703,59.41,22.44,21.95,67.19
18.667575120925903,60.32,15.19,21.01,65.65
18.67669701576233,52.79,8.18,18.42,56.5
18.68842911720276,41.28,5.02,15.75,44.46
18.696873903274536,30.07,4.5,14.1,33.51
18.708112955093384,21.26,5.95,12.29,25.26
18.737294912338257,16.29,8.05,10.69,21.08
18.739675998687744,14.33,9.03,9.43,19.38
18.741446018218994,13.46,8.9,8.32,18.15
18.74748706817627,12.55,8.33,7.49,16.82
18.75729012489319,11.51,7.87,6.93,15.57
18.768201112747192,10.62,7.06,6.0,14.09
18.77727484703064,10.42,5.48,5.03,12.8
18.787999868392944,10.89,3.38,4.27,12.17
18.798929929733276,11.4,1.21,3.9,12.1
18.807483911514282,11.82,-0.8,3.78,12.43
18.83766198158264,12.52,-2.65,3.81,13.35
18.840012073516846,13.67,-4.63,4.03,14.98
18.8417751789093,15.05,-6.77,4.06,16.99
18.847694158554077,16.54,-8.79,3.74,19.1
18.85810899734497,18.36,-11.06,3.11,21.65
18.868372201919556,20.03,-13.41,2.26,24.21
18.8785240650177,21.39,-15.5,1.33,26.44
18.88791584968567,22.68,-17.41,0.33,28.59
18.89879608154297,23.83,-19.23,-0.82,30.63
18.909411191940308,24.77,-20.94,-1.75,32.48
18.93798303604126,25.67,-22.6,-2.47,34.29
18.94025206565857,26.66,-24.32,-3.23,36.23
18.942075967788696,27.42,-26.17,-3.8,38.09
18.95013999938965,27.7,-27.88,-4.12,39.51
18.95815110206604,27.5,-29.36,-4.3,40.45
18.968796014785767,26.71,-30.84,-4.09,41.0
18.978960037231445,25.95,-32.37,-3.94,41.67
18.98912787437439,25.13,-33.01,-4.51,41.73
18.99851107597351,24.75,-32.66,-6.14,41.43
19.00989603996277,24.3,-32.38,-8.96,41.46
19.038944005966187,23.73,-32.66,-11.88,42.08
19.04133701324463,22.86,-33.79,-14.11,43.16
19.043155908584595,19.18,-34.61,-14.96,42.3
19.050062894821167,11.1,-32.98,-15.41,38.05
19.05840802192688,-1.9,-27.12,-16.35,31.72
19.068392038345337,-15.03,-20.87,-14.78,29.66
19.078680992126465,-22.46,-24.97,-11.1,35.37
19.090462923049927,-25.27,-38.43,-6.21,46.41
19.099243879318237,-31.62,-44.13,4.73,54.49
19.1107120513916,-44.74,-36.59,17.86,60.49
19.13979196548462,-51.83,-28.6,24.11,63.91
19.14212393760681,-46.85,-29.14,22.17,59.46
19.14393401145935,-38.29,-31.6,15.62,52.04
19.149669885635376,-31.65,-31.54,8.95,45.56
19.159898042678833,-26.27,-30.59,2.91,40.42
19.169348001480103,-20.99,-30.23,-2.36,36.87
19.18006706237793,-15.6,-30.59,-5.89,34.83
19.190821886062622,-10.19,-30.81,-7.17,33.23
19.199357986450195,-4.75,-30.83,-7.28,32.03
19.211453199386597,0.78,-31.2,-7.02,31.98
19.240383863449097,6.16,-31.54,-6.82,32.85
19.24269986152649,10.6,-31.33,-7.03,33.81
19.244492053985596,13.87,-30.38,-7.36,34.19
19.249778985977173,16.36,-29.0,-7.82,34.2
19.260542154312134,18.33,-27.25,-8.55,33.93
19.26984715461731,19.97,-25.58,-9.15,33.71
19.281427145004272,21.06,-24.71,-9.61,33.85
19.29135799407959,21.49,-24.56,-9.84,34.08
19.299844980239868,21.52,-24.93,-9.76,34.34
19.31018304824829,21.12,-25.17,-9.27,34.13
19.342215061187744,19.93,-24.73,-8.48,32.87
19.344568014144897,18.18,-23.23,-7.57,30.45
19.346423864364624,16.42,-21.31,-6.87,27.76
19.350486993789673,15.44,-19.69,-6.41,25.82
19.36701202392578,15.57,-19.08,-6.11,25.37
19.37060284614563,15.93,-18.67,-5.72,25.2
19.380251169204712,16.85,-17.14,-5.67,24.69
19.391232013702393,17.69,-16.18,-5.48,24.59
19.402029037475586,18.24,-15.59,-5.52,24.62
19.410521030426025,18.76,-14.96,-5.45,24.6
19.44502902030945,18.61,-14.33,-5.09,24.03
19.447398900985718,17.64,-13.18,-4.31,22.43
19.449363946914673,16.16,-11.62,-2.68,20.08
19.452059984207153,14.67,-9.63,-0.78,17.56
19.46252202987671,14.1,-7.08,0.73,15.79
19.471039056777954,13.88,-4.79,1.71,14.78
19.480885982513428,13.78,-2.48,2.44,14.21
19.492316961288452,13.87,-0.38,3.43,14.29
19.50089406967163,13.92,1.12,5.53,15.02
19.512140035629272,14.51,2.9,9.55,17.61
19.540834188461304,15.33,6.38,13.95,21.68
19.543243169784546,18.37,10.07,17.95,27.58
19.545094966888428,25.64,10.45,21.14,34.83
19.55124807357788,33.83,8.21,22.2,41.28
19.5612690448761,39.98,8.16,23.93,47.3
19.571654081344604,44.63,12.14,28.7,54.43
19.582145929336548,48.45,16.23,33.82,61.27
19.59208106994629,52.86,17.18,36.33,66.4
19.60292410850525,59.02,14.94,37.44,71.47
19.611522912979126,60.79,9.17,33.81,70.16
19.64439105987549,56.83,2.42,27.21,63.05
19.64673113822937,47.62,-1.8,20.85,52.01
19.64861512184143,34.32,-2.02,15.68,37.78
19.652010202407837,21.52,1.68,13.18,25.29
19.661144971847534,12.64,6.2,12.05,18.53
19.671526193618774,8.32,8.45,10.98,16.16
19.68160891532898,7.37,8.5,9.62,14.8
19.691685914993286,7.64,8.13,8.63,14.1
19.70181703567505,7.9,7.91,8.42,13.99
19.71171998977661,8.2,7.32,8.48,13.88
19.74201512336731,8.59,5.98,8.16,13.27
19.74433398246765,8.74,4.11,7.57,12.27
19.74615216255188,8.64,2.23,6.9,11.27
19.75168204307556,8.59,0.5,6.21,10.61
19.76218605041504,8.92,-1.26,5.38,10.49
19.771836042404175,9.58,-3.3,4.15,10.94
19.781952142715454,10.74,-5.5,2.96,12.42
19.79206395149231,12.01,-7.65,1.93,14.36
19.802721977233887,13.03,-9.31,1.07,16.04
19.814057111740112,14.04,-10.73,0.51,17.67
19.843832969665527,15.15,-12.06,0.02,19.36
19.846212148666382,16.78,-13.57,-0.41,21.58
19.848088026046753,18.38,-15.12,-0.96,23.81
19.8525710105896,20.02,-16.57,-1.41,26.02
19.867415189743042,21.57,-17.99,-1.98,28.15
19.872776985168457,22.98,-19.35,-2.45,30.14
19.882970094680786,24.09,-20.74,-2.78,31.9
19.894295930862427,24.98,-22.16,-3.18,33.54
19.90283703804016,25.95,-23.85,-3.51,35.41
19.913767099380493,26.71,-25.84,-3.99,37.37
19.943308115005493,26.76,-27.97,-4.6,38.98
19.945723056793213,26.16,-30.02,-5.04,40.13
19.94754719734192,25.17,-31.86,-5.51,40.97
19.95352292060852,24.03,-33.58,-6.3,41.77
19.967437982559204,22.25,-34.72,-7.62,41.93
19.97355604171753,20.45,-34.4,-9.75,41.19
19.983307123184204,18.79,-33.5,-12.86,40.5
19.994075059890747,16.24,-33.17,-16.61,40.49
20.004913091659546,9.94,-32.74,-20.29,39.77
20.013476133346558,-2.43,-28.34,-22.9,36.51
20.04631495475769,-17.26,-21.11,-19.01,33.24
20.048665046691895,-26.26,-20.82,-10.72,35.18
20.050742864608765,-31.96,-32.81,-10.7,47.03
20.05361819267273,-39.87,-40.8,-10.86,58.07
20.06504511833191,-49.43,-34.36,-1.79,60.22
20.07469391822815,-49.5,-31.01,6.09,58.72
20.085283994674683,-42.18,-33.67,7.11,54.43
20.09417200088501,-34.52,-33.38,6.05,48.39
20.10532307624817,-28.42,-31.5,3.81,42.59
20.114320993423462,-22.32,-30.57,-0.05,37.85
20.14336085319519,-15.66,-30.33,-4.47,34.42
20.14575219154358,-9.04,-29.99,-7.93,32.31
20.147567987442017,-2.67,-29.33,-10.13,31.14
20.154025077819824,2.9,-28.87,-10.94,31.0
20.16773009300232,7.5,-28.63,-10.89,31.53
20.174773931503296,10.88,-28.6,-10.39,32.31
20.185721158981323,13.32,-28.51,-9.39,32.83
20.19385313987732,15.07,-28.06,-7.95,32.82
20.20414900779724,16.05,-27.17,-6.59,32.23
20.214718103408813,16.59,-26.25,-5.86,31.6
20.24486207962036,16.86,-25.93,-5.45,31.4
20.247051000595093,17.01,-26.15,-5.0,31.59
20.24882698059082,17.18,-26.41,-4.46,31.82
20.254799127578735,17.23,-26.01,-3.99,31.45
20.266361951828003,16.94,-24.82,-3.63,30.26
20.27510404586792,16.49,-23.47,-3.2,28.86
20.286557912826538,16.27,-22.61,-2.86,28.0
20.294918060302734,16.02,-22.06,-2.89,27.41
20.306339025497437,15.53,-21.55,-3.17,26.75
20.316205978393555,14.57,-21.3,-3.37,26.02
20.345957040786743,13.43,-20.1,-3.09,24.37
20.34811806678772,12.25,-17.97,-2.69,21.91
20.35009002685547,10.67,-15.82,-2.48,19.24
20.354615926742554,9.84,-14.34,-2.32,17.54
20.364845991134644,10.52,-13.64,-1.95,17.33
20.375827074050903,11.71,-13.41,-1.83,17.89
20.385963201522827,12.72,-13.06,-1.91,18.33
20.396934032440186,13.92,-12.34,-1.56,18.66
20.40566086769104,14.66,-10.99,-0.37,18.32
20.416853189468384,14.83,-8.25,1.3,17.02
20.44500708580017,15.35,-4.75,2.4,16.24
20.447227001190186,15.71,-2.02,2.1,15.97
20.448726892471313,15.12,-0.31,1.7,15.21
20.455557107925415,13.54,2.41,3.25,14.13
20.466907024383545,13.06,7.31,6.17,16.18
20.475759983062744,16.45,12.53,8.99,22.54
20.487219095230103,24.4,13.82,9.61,29.64
20.497537851333618,34.06,12.0,9.63,37.37
20.50580096244812,40.8,12.85,10.42,44.02
20.516626119613647,43.8,16.95,13.7,48.92
20.54780411720276,45.22,21.0,20.1,53.75
20.550338983535767,49.19,21.06,25.79,59.39
20.552161931991577,54.86,15.26,27.83,63.37
20.556215047836304,56.69,8.44,27.96,63.77
20.566159963607788,54.52,3.15,26.13,60.54
20.57758903503418,50.68,-1.48,23.57,55.91
20.586238145828247,45.28,-4.94,20.7,50.03
20.596471071243286,38.75,-5.67,16.72,42.58
20.607797861099243,31.04,-4.26,11.76,33.46
20.61658215522766,24.13,-3.2,6.97,25.31
20.646332025527954,19.35,-1.92,2.9,19.66
20.648083925247192,16.21,0.57,-0.02,16.22
20.649452924728394,13.61,3.38,-2.51,14.24
20.65674090385437,12.04,5.43,-4.29,13.88
20.66829514503479,11.47,5.85,-4.05,13.49
20.67664408683777,10.91,5.21,-3.84,12.68
20.688420057296753,10.25,3.99,-3.15,11.44
20.696794033050537,9.97,2.38,-1.44,10.35
20.707110166549683,10.14,0.32,1.08,10.2
20.718523025512695,10.91,-2.24,3.84,11.78
20.746483087539673,11.83,-4.79,5.74,13.99
20.748624086380005,12.07,-6.85,6.57,15.35
20.750203847885132,12.27,-8.34,6.73,16.29
20.756937980651855,12.97,-9.94,6.2,17.47
20.769755125045776,14.17,-12.29,4.92,19.39
20.777184009552002,15.63,-15.05,3.06,21.91
20.787530183792114,17.03,-17.96,0.85,24.76
20.798755884170532,18.0,-20.78,-1.28,27.52
20.80741000175476,18.76,-23.22,-2.99,30.0
20.818575143814087,19.83,-25.53,-4.52,32.64
20.84770894050598,21.04,-27.68,-5.86,35.25
20.850027084350586,21.99,-29.58,-6.88,37.49
20.851421117782593,22.38,-31.14,-7.48,39.07
20.85787606239319,22.18,-32.53,-7.39,40.05
20.868221044540405,21.59,-33.78,-6.94,40.68
20.878408193588257,20.81,-34.79,-6.78,41.1
20.88805603981018,19.88,-35.71,-6.84,41.43
20.89906096458435,18.95,-36.51,-6.74,41.68
20.90930199623108,18.58,-36.93,-6.99,41.92
20.918012857437134,18.43,-37.06,-8.07,42.16
20.94781517982483,17.68,-37.98,-9.21,42.89
20.950146913528442,15.03,-39.47,-10.15,43.43
20.951858043670654,8.38,-38.2,-11.11,40.65
20.958023071289062,-2.37,-34.12,-11.71,36.15
20.968509912490845,-13.73,-29.26,-9.65,33.73
20.97821593284607,-23.7,-25.25,-4.72,34.95
20.989870071411133,-28.94,-25.96,0.39,38.87
20.999569177627563,-27.17,-33.12,6.43,43.31
21.009835958480835,-26.92,-38.2,17.99,50.07
21.018472909927368,-35.49,-33.95,31.75,58.48
21.04764485359192,-43.07,-28.43,40.93,65.86
21.049906015396118,-42.62,-28.08,42.94,66.69
21.051735162734985,-37.1,-30.65,38.26,61.47
21.058624982833862,-30.29,-31.25,30.57,53.18
21.069567918777466,-23.08,-31.27,22.11,44.71
21.079357862472534,-15.98,-32.88,13.63,39.01
21.08954906463623,-9.98,-33.98,6.73,36.04
21.098857164382935,-4.76,-34.49,2.14,34.88
21.110311031341553,0.16,-34.96,-0.45,34.96
21.120409965515137,5.19,-35.29,-1.75,35.71
21.1494619846344,10.3,-35.56,-2.64,37.11
21.151592016220093,14.3,-35.5,-3.65,38.44
21.15339207649231,16.8,-34.71,-4.26,38.79
21.159135103225708,18.58,-33.53,-4.55,38.6
21.170718908309937,20.27,-32.75,-5.11,38.85
21.179280042648315,21.93,-32.65,-6.1,39.8
21.189850091934204,23.47,-32.95,-6.57,40.98
21.200103998184204,24.43,-33.01,-6.25,41.53
21.209423065185547,24.22,-32.64,-5.39,41.0
21.2209050655365,22.81,-31.51,-4.37,39.14
21.25027585029602,21.34,-29.83,-3.49,36.84
21.25226402282715,20.33,-28.24,-3.14,34.93
21.253962993621826,20.06,-27.53,-3.66,34.25
21.259737014770508,19.0,-26.57,-4.47,32.96
21.27026915550232,17.22,-24.23,-4.94,30.13
21.28065800666809,15.65,-22.4,-4.93,27.76
21.289921045303345,15.32,-21.16,-4.27,26.47
21.30125904083252,15.68,-20.13,-3.03,25.69
21.309859037399292,15.32,-18.44,-1.55,24.02
21.32048010826111,15.63,-16.44,-0.1,22.68
21.352258920669556,17.77,-15.22,1.22,23.42
21.354392051696777,21.87,-14.19,1.36,26.1
21.35624098777771,25.5,-12.25,0.41,28.29
21.36043095588684,26.49,-8.48,0.2,27.81
21.37042498588562,25.91,-3.45,-0.02,26.13
21.38152003288269,25.0,1.08,0.11,25.02
21.390531063079834,23.71,4.8,3.12,24.39
21.401118993759155,23.32,8.71,7.13,25.89
21.41193199157715,25.24,11.16,10.74,29.61
21.420947074890137,29.31,11.04,13.45,34.08
21.452672004699707,34.48,10.27,15.49,39.16
21.45479989051819,40.03,10.61,18.08,45.18
21.456549882888794,46.1,10.92,22.2,52.31
21.460710048675537,53.33,10.1,25.74,60.07
21.47097396850586,60.17,7.04,28.08,66.77
21.481777906417847,63.16,3.12,28.74,69.46
21.49226403236389,62.72,-0.91,26.73,68.18
21.501292943954468,59.69,-6.62,22.4,64.09
21.512297868728638,53.75,-11.89,16.0,57.32
21.520970106124878,45.9,-13.9,10.58,49.11
21.550048112869263,36.43,-12.33,6.87,39.06
21.552178144454956,27.23,-8.89,4.06,28.93
21.553515195846558,20.55,-5.47,2.76,21.44
21.561161994934082,17.02,-2.96,1.91,17.38
21.572816133499146,14.38,-1.25,-0.34,14.43
21.581703901290894,12.38,1.18,-2.87,12.76
21.592769861221313,12.33,3.39,-3.92,13.37
21.601381063461304,13.42,3.93,-3.75,14.47
21.612088918685913,14.58,3.44,-3.11,15.29
21.62291407585144,15.45,2.17,-2.27,15.76
21.65178108215332,15.99,-0.23,-1.18,16.03
21.653913974761963,15.96,-3.59,0.03,16.35
21.655724048614502,15.81,-7.69,1.2,17.62
21.661665201187134,15.2,-11.89,2.22,19.42
21.673708200454712,14.24,-14.94,2.99,20.85
21.681805849075317,13.71,-16.97,3.19,22.04
21.69175100326538,14.02,-18.64,2.86,23.49
21.703293085098267,14.94,-20.14,1.79,25.14
21.711809873580933,16.3,-21.55,0.19,27.02
21.722892999649048,18.05,-23.32,-1.81,29.54
21.753957986831665,20.01,-25.69,-3.98,32.8
21.755936861038208,21.67,-28.06,-5.85,35.93
21.757628202438354,22.73,-29.79,-6.95,38.11
21.76206398010254,23.28,-31.07,-7.7,39.58
21.77238392829895,23.52,-32.11,-8.29,40.65
21.78553605079651,23.3,-33.2,-8.56,41.45
21.792260885238647,22.42,-33.92,-8.56,41.55
21.80244207382202,21.02,-34.1,-8.21,40.89
21.813886880874634,19.5,-34.14,-7.91,40.1
21.822477102279663,18.03,-34.42,-8.16,39.7
21.85295796394348,17.12,-34.7,-8.71,39.66
21.855302095413208,16.94,-34.94,-10.0,40.09
21.856919050216675,16.89,-36.15,-12.16,41.71
21.862832069396973,14.63,-37.79,-14.82,43.14
21.874412059783936,6.97,-36.15,-16.86,40.49
21.882918119430542,-5.22,-30.46,-18.36,35.94
21.892443895339966,-18.27,-23.45,-17.83,34.66
21.903594970703125,-27.5,-20.5,-15.59,37.67
21.914034128189087,-30.19,-27.49,-12.39,42.66
21.924463987350464,-31.33,-36.53,-4.03,48.29
21.953607082366943,-38.48,-35.85,8.89,53.33
21.95598816871643,-48.93,-28.28,18.49,59.46
21.95781707763672,-51.59,-24.46,21.92,61.15
21.96335506439209,-47.15,-25.94,19.18,57.13
21.974793195724487,-41.88,-26.83,12.35,51.24
21.98336386680603,-37.67,-26.07,5.25,46.11
21.99420404434204,-32.12,-26.85,-1.01,41.87
22.00472092628479,-25.13,-28.92,-5.77,38.74
22.013253927230835,-18.67,-30.74,-8.51,36.95
22.024811029434204,-12.62,-31.95,-9.81,35.72
22.052078008651733,-5.98,-33.43,-10.0,35.4
22.054452180862427,0.74,-35.13,-9.79,36.47
22.05605912208557,6.24,-35.97,-9.29,37.67
22.06351590156555,10.17,-35.36,-8.6,37.78
22.07505702972412,12.68,-34.0,-8.03,37.16
22.085508108139038,13.93,-32.82,-7.66,36.46
22.093656063079834,14.49,-31.79,-7.19,35.66
22.105345964431763,14.52,-30.88,-6.53,34.74
22.11374592781067,14.57,-30.18,-5.65,33.98
22.124984979629517,15.03,-29.77,-4.85,33.69
22.15382695198059,15.43,-29.48,-4.25,33.54
22.1561439037323,15.36,-29.11,-4.01,33.15
22.157588005065918,15.15,-28.73,-3.97,32.72
22.16386389732361,15.15,-28.63,-4.09,32.64
22.17435908317566,15.08,-27.94,-4.67,32.09
22.18512201309204,14.02,-26.53,-5.84,30.56
22.19423198699951,12.58,-24.85,-6.99,28.71
22.205238103866577,11.73,-23.38,-7.24,27.14
22.215965032577515,11.53,-22.54,-7.55,26.41
22.224671125411987,12.13,-22.23,-7.93,26.53
22.254430055618286,13.46,-22.33,-7.87,27.23
22.256826162338257,14.2,-21.89,-7.07,27.03
22.258639097213745,13.94,-19.21,-4.94,24.24
22.26461696624756,14.24,-16.06,-2.21,21.57
22.274988889694214,15.76,-13.38,0.52,20.68
22.28526496887207,18.95,-10.36,1.81,21.67
22.295400857925415,22.02,-7.05,1.25,23.15
22.304861068725586,23.5,-4.05,0.54,23.85
22.31632113456726,24.49,-1.93,1.16,24.59
22.325276136398315,26.45,-0.2,4.64,26.85
22.35520601272583,28.46,1.8,9.58,30.08
22.35757803916931,31.04,3.69,13.5,34.04
22.359374046325684,37.04,2.65,16.12,40.48
22.364930868148804,45.2,-1.21,18.12,48.71
22.37592387199402,50.96,-3.94,21.12,55.3
22.385926008224487,53.51,-3.7,25.56,59.41
22.395861864089966,54.75,-1.65,29.32,62.12
22.406781911849976,57.86,0.85,27.5,64.06
22.41592001914978,60.97,-3.32,25.17,66.04
22.42682385444641,59.69,-4.27,24.36,64.61
22.454421043395996,55.54,-2.67,17.93,58.42
22.456730127334595,49.46,-5.26,13.59,51.56
22.458038091659546,38.95,-5.87,8.17,40.22
22.466331005096436,27.69,-3.1,4.8,28.27
22.47635817527771,19.61,0.19,4.54,20.12
22.48580813407898,15.18,2.26,4.68,16.04
22.4964280128479,13.29,3.3,4.65,14.46
22.507314920425415,12.61,3.9,4.7,14.01
22.51587700843811,12.94,3.91,4.69,14.3
22.527410984039307,13.75,3.11,4.51,14.8
22.556971073150635,14.28,1.62,4.35,15.01
22.55929207801819,15.1,-0.2,4.64,15.79
22.561079025268555,15.92,-2.4,4.35,16.67
22.56617307662964,16.18,-5.25,3.77,17.42
22.576385021209717,16.41,-8.58,3.2,18.79
22.587023973464966,16.26,-11.93,2.38,20.3
22.596214056015015,15.82,-15.0,1.62,21.86
22.60708212852478,15.21,-17.88,0.78,23.48
22.617025136947632,15.1,-20.5,-0.26,25.46
22.62643313407898,15.39,-23.05,-1.46,27.75
22.65846085548401,15.86,-25.83,-2.72,30.43
22.660799026489258,16.37,-28.62,-3.89,33.19
22.662644147872925,16.62,-30.96,-4.82,35.46
22.666735887527466,16.67,-33.0,-5.64,37.39
22.676522970199585,16.42,-34.49,-6.28,38.71
22.6876220703125,15.95,-35.47,-6.52,39.43
22.697509050369263,15.66,-36.54,-6.39,40.26
22.706942081451416,15.26,-37.48,-5.84,40.88
22.717429876327515,14.4,-37.32,-4.88,40.29
22.726881980895996,13.55,-36.88,-3.99,39.49
22.755908966064453,12.87,-36.77,-3.69,39.13
22.75819706916809,12.25,-36.75,-3.7,38.91
22.759966135025024,11.44,-36.06,-4.05,38.04
22.767778158187866,11.21,-34.85,-5.55,37.02
22.777284860610962,11.52,-35.33,-8.48,38.11
22.78778910636902,9.1,-37.39,-11.64,40.2
22.797252893447876,0.67,-36.16,-13.13,38.47
22.807573080062866,-15.25,-26.86,-12.9,33.47
22.81692099571228,-30.45,-15.72,-7.47,35.07
22.828044176101685,-35.69,-17.59,-1.2,39.8
22.85796618461609,-31.99,-32.12,4.13,45.52
22.860288858413696,-33.38,-39.27,13.88,53.37
22.862098932266235,-44.04,-30.44,26.36,59.67
22.868569135665894,-46.46,-26.1,33.67,63.03
22.878329038619995,-40.63,-29.14,33.27,60.05
22.887850046157837,-35.94,-28.39,28.88,54.14
22.89807105064392,-31.46,-26.38,22.67,46.89
22.907539129257202,-24.39,-26.52,15.05,39.04
22.917507886886597,-16.3,-27.0,7.44,32.4
22.92763900756836,-9.21,-27.09,0.79,28.62
22.958429098129272,-3.13,-27.49,-3.68,27.91
22.960756063461304,1.84,-28.23,-6.13,28.94
22.96256709098816,5.51,-29.17,-7.5,30.61
22.968313932418823,8.02,-30.04,-8.06,32.11
22.978564977645874,9.53,-30.11,-7.91,32.55
22.988497018814087,10.23,-29.08,-7.38,31.69
22.998152017593384,10.74,-27.97,-6.82,30.72
23.009809017181396,11.42,-27.68,-6.56,30.65
23.01828408241272,12.53,-27.84,-6.5,31.21
23.029224157333374,13.85,-27.92,-6.17,31.77
23.060601949691772,14.71,-27.72,-5.54,31.86
23.062949895858765,14.8,-27.43,-4.78,31.53
23.064769983291626,14.11,-26.77,-4.31,30.56
23.068928956985474,12.71,-25.47,-3.89,28.72
23.078724145889282,10.93,-23.83,-3.29,26.42
23.088706016540527,10.13,-22.26,-2.63,24.59
23.099183082580566,10.32,-21.75,-2.8,24.23
23.109535932540894,10.19,-21.48,-3.34,24.0
23.11858296394348,9.86,-19.75,-3.22,22.3
23.12921690940857,9.59,-18.05,-2.18,20.55
23.1635959148407,10.79,-17.76,-0.42,20.78
23.16592812538147,11.89,-17.73,1.41,21.39
23.16784119606018,12.3,-16.13,2.69,20.46
23.170608043670654,12.3,-14.54,2.75,19.24
23.179073095321655,13.72,-13.74,1.67,19.48
23.190433025360107,13.69,-11.74,0.44,18.03
23.20064902305603,12.34,-6.62,-0.62,14.01
23.209287881851196,11.98,-0.7,0.23,12.0
23.22095513343811,13.32,2.8,1.44,13.68
23.22933006286621,17.38,2.51,2.07,17.68
23.25785994529724,23.06,0.72,1.65,23.13
23.259974002838135,27.55,2.5,1.47,27.7
23.26120686531067,29.9,6.56,3.28,30.78
23.26948094367981,31.64,9.15,6.96,33.66
23.28118395805359,33.81,9.0,11.49,36.82
23.29035210609436,36.19,7.28,15.09,39.88
23.30139398574829,37.83,5.74,15.91,41.43
23.31020498275757,40.04,4.85,15.11,43.07
23.32133197784424,43.8,4.53,13.88,46.16
23.329915046691895,48.9,3.31,11.71,50.39
23.35914707183838,53.17,0.83,9.07,53.94
23.361223936080933,53.49,-0.6,7.04,53.95
23.362568140029907,50.43,-0.83,6.09,50.8
23.37044906616211,45.18,-1.34,5.18,45.49
23.38166117668152,38.65,-2.08,4.42,38.95
23.390578031539917,31.29,-1.64,4.39,31.63
23.401803970336914,24.28,0.65,5.14,24.82
23.410292863845825,18.76,3.86,6.17,20.12
23.420900106430054,15.56,6.21,7.19,18.23
23.431803941726685,14.6,7.55,7.66,18.13
23.459298849105835,14.91,8.19,7.35,18.53
23.46159601211548,15.62,8.49,7.02,19.11
23.46342396736145,15.96,8.08,6.71,19.1
23.470623016357422,15.48,6.58,6.27,17.95
23.481691122055054,14.52,4.13,5.98,16.23
23.49068307876587,13.91,0.77,5.87,15.11
23.50151515007019,13.57,-2.82,5.77,15.01
23.512171983718872,13.25,-5.99,5.22,15.44
23.520766019821167,13.45,-9.08,4.48,16.83
23.532064199447632,14.28,-11.87,3.87,18.96
23.5635769367218,15.35,-13.77,2.67,20.79
23.56594491004944,16.59,-15.42,1.01,22.67
23.567749977111816,18.31,-17.49,-0.73,25.33
23.571014165878296,20.39,-20.28,-2.87,28.9
23.581605195999146,22.15,-23.83,-5.04,32.92
23.59304118156433,22.88,-27.19,-6.65,36.15
23.60135507583618,22.16,-29.03,-8.18,37.42
23.612434148788452,20.47,-29.53,-8.93,37.02
23.622833967208862,19.07,-29.95,-7.75,36.34
23.631930112838745,17.86,-30.61,-6.97,36.11
23.661272048950195,16.85,-30.75,-7.84,35.92
23.663151025772095,16.7,-30.91,-8.38,36.11
23.664509057998657,16.65,-31.47,-7.47,36.37
23.671818017959595,16.34,-31.87,-6.56,36.41
23.681371927261353,15.93,-31.79,-6.21,36.09
23.693217992782593,16.08,-31.57,-6.56,36.03
23.70201086997986,16.99,-31.7,-7.97,36.83
23.71216607093811,17.21,-32.62,-10.35,38.3
23.723306894302368,15.24,-33.8,-12.57,39.14
23.731879949569702,9.03,-33.41,-14.31,37.45
23.760478973388672,-1.54,-30.83,-13.17,33.56
23.762655019760132,-14.48,-26.13,-11.43,31.98
23.764063119888306,-26.37,-21.09,-9.6,35.1
23.772055864334106,-29.52,-25.32,-5.48,39.27
23.783573865890503,-26.72,-35.38,-0.08,44.33
23.792775869369507,-29.09,-36.52,9.83,47.71
23.80369806289673,-36.69,-28.46,20.69,50.83
23.81226396560669,-39.84,-23.36,26.57,53.28
23.82416319847107,-37.1,-24.29,26.79,51.8
23.83238697052002,-33.21,-25.58,24.9,48.75
23.86156702041626,-29.88,-24.71,23.25,45.21
23.863782167434692,-25.55,-24.51,20.97,41.14
23.86514401435852,-19.79,-25.99,17.55,37.08
23.872175931930542,-14.46,-27.11,13.48,33.55
23.885541200637817,-9.31,-27.45,8.87,30.31
23.892266988754272,-3.55,-28.12,3.87,28.6
23.902665853500366,1.72,-28.95,-1.2,29.02
23.91434907913208,6.5,-29.48,-5.91,30.76
23.922872066497803,10.42,-29.99,-10.31,33.38
23.934191942214966,12.68,-30.04,-13.49,35.28
23.96448802947998,13.42,-29.18,-14.69,35.31
23.966585874557495,13.13,-27.91,-14.47,34.06
23.968504190444946,12.23,-26.73,-13.17,32.21
23.972676038742065,10.9,-25.43,-10.85,29.71
23.982600927352905,10.04,-24.63,-8.6,27.95
23.993006944656372,9.76,-24.17,-6.52,26.86
24.002852201461792,9.63,-23.53,-5.16,25.94
24.01337695121765,8.92,-22.75,-4.53,24.85
24.019645929336548,8.26,-22.04,-4.29,23.92
24.02987003326416,8.82,-22.01,-4.01,24.04
24.06044602394104,10.43,-23.03,-3.96,25.58
24.062703847885132,11.66,-23.7,-4.06,26.72
24.06452488899231,11.48,-23.19,-4.04,26.18
24.069977045059204,10.06,-20.75,-3.72,23.35
24.08041214942932,8.55,-18.22,-3.38,20.4
24.090068101882935,7.78,-17.05,-3.34,19.03
24.100389003753662,7.95,-16.71,-3.24,18.78
24.110274076461792,8.46,-16.49,-2.89,18.75
24.12030005455017,9.23,-16.52,-2.51,19.08
24.130765199661255,10.53,-16.78,-2.24,19.93
24.161808013916016,11.66,-15.85,-2.27,19.8
24.164168119430542,11.34,-12.95,-2.94,17.46
24.16598105430603,10.48,-9.51,-3.88,14.67
24.17062020301819,11.07,-5.84,-4.34,13.24
24.186931848526,13.99,-2.82,-4.13,14.85
24.191030979156494,19.42,-0.08,-4.1,19.84
24.201279878616333,26.95,3.02,-2.96,27.27
24.211221933364868,35.12,5.52,0.05,35.55
24.22156596183777,42.99,6.17,2.51,43.5
24.23140597343445,48.32,4.16,6.07,48.87
24.26090097427368,49.59,0.99,11.83,50.99
24.26321506500244,46.23,0.16,16.86,49.2
24.2651309967041,40.91,2.12,21.68,46.34
24.271172046661377,39.24,3.53,24.8,46.55
24.28206205368042,43.7,0.44,24.55,50.12
24.291194200515747,49.1,-4.64,22.44,54.18
24.301242113113403,50.8,-6.9,19.91,54.99
24.31173801422119,48.51,-6.04,17.23,51.83
24.3213369846344,42.9,-3.53,14.14,45.3
24.332049131393433,35.18,-0.78,11.3,36.95
24.362372159957886,27.51,1.72,9.35,29.1
24.36479115486145,21.07,3.81,7.89,22.81
24.366664171218872,16.19,5.4,6.72,18.34
24.371433973312378,12.93,6.57,6.06,15.71
24.386648893356323,10.77,7.61,5.98,14.47
24.391496896743774,9.73,8.4,6.48,14.39
24.40153193473816,9.92,8.53,7.15,14.9
24.411779165267944,11.14,7.54,7.82,15.55
24.42228102684021,12.83,5.66,8.35,16.32
24.431976079940796,14.21,3.41,8.3,16.8
24.46086812019348,14.49,0.75,7.63,16.39
24.463186025619507,13.94,-2.31,6.78,15.67
24.4650399684906,13.01,-5.54,6.06,15.38
24.4724280834198,12.2,-8.63,5.36,15.87
24.482123136520386,12.13,-11.65,4.78,17.48
24.492403984069824,12.68,-14.84,3.93,19.91
24.50248694419861,13.55,-17.89,2.64,22.59
24.51258111000061,14.36,-20.58,1.31,25.12
24.5228111743927,14.62,-22.97,0.13,27.22
24.53277087211609,14.66,-24.73,-0.96,28.76
24.563366174697876,14.82,-26.08,-1.76,30.04
24.56584095954895,15.37,-27.36,-2.67,31.49
24.5675151348114,16.09,-28.75,-3.77,33.16
24.57248306274414,16.65,-30.41,-4.65,34.98
24.59207797050476,16.14,-32.08,-5.86,36.38
24.601366996765137,15.19,-32.44,-6.13,36.34
24.612713098526,14.2,-32.54,-5.94,35.99
24.62130904197693,13.21,-32.4,-5.57,35.43
24.6322820186615,12.38,-32.24,-5.5,34.97
24.6428701877594,11.5,-32.15,-5.55,34.59
24.671683073043823,10.49,-31.32,-5.75,33.52
24.674031019210815,9.14,-30.45,-6.45,32.43
24.67586588859558,7.05,-30.94,-7.65,32.64
24.681464910507202,2.6,-31.67,-9.26,33.09
24.69172692298889,-7.45,-29.25,-12.2,32.55
24.701576948165894,-23.01,-20.95,-14.71,34.42
24.711521863937378,-35.92,-15.24,-13.23,41.2
24.723273038864136,-39.43,-23.21,-8.84,46.6
24.732031106948853,-40.08,-36.82,-2.49,54.48
24.742789030075073,-45.09,-39.36,9.48,60.59
24.774348974227905,-48.46,-34.63,22.31,63.6
24.77671504020691,-44.91,-33.62,27.27,62.37
24.778568983078003,-36.69,-34.08,25.55,56.21
24.782158136367798,-27.87,-33.77,20.78,48.46
24.79212999343872,-19.25,-33.74,14.2,41.35
24.802901029586792,-10.98,-33.8,6.71,36.16
24.812479972839355,-3.98,-33.57,0.24,33.8
24.82317614555359,1.34,-33.26,-4.07,33.53
24.83452606201172,5.41,-33.01,-6.39,34.05
24.842507123947144,8.62,-32.45,-7.4,34.38
24.873675107955933,10.87,-32.02,-7.61,34.66
24.875977039337158,12.34,-31.56,-7.11,34.62
24.877742052078247,13.26,-30.88,-6.29,34.19
24.88247799873352,13.95,-30.38,-5.83,33.93
24.89344596862793,14.36,-30.25,-5.7,33.96
24.903127908706665,14.88,-30.27,-5.43,34.16
24.913385152816772,15.68,-30.28,-5.07,34.47
24.922988176345825,16.39,-29.72,-4.79,34.27
24.933501958847046,16.56,-28.64,-4.83,33.43
24.94277000427246,16.32,-27.49,-4.79,32.32
24.974071979522705,16.12,-26.56,-4.98,31.46
24.976197957992554,15.38,-25.96,-5.37,30.64
24.977900981903076,14.34,-24.61,-5.27,28.96
24.98337197303772,13.51,-22.8,-4.46,26.87
24.993178129196167,13.1,-21.4,-3.32,25.3
25.003565073013306,13.46,-20.31,-2.29,24.47
25.01400399208069,13.68,-19.98,-1.01,24.23
25.02325201034546,13.4,-17.02,0.96,21.68
25.033323049545288,14.05,-13.58,3.01,19.77
25.043957948684692,16.28,-11.42,4.28,20.34
25.074871063232422,18.51,-9.03,3.9,20.96
25.077161073684692,19.58,-6.18,2.67,20.7
25.079004049301147,19.33,-3.34,2.25,19.74
25.08366107940674,18.49,-0.46,2.79,18.7
25.094309091567993,17.32,2.49,3.68,17.88
25.103861093521118,17.05,5.54,5.51,18.75
25.114219903945923,18.31,8.64,7.26,21.5
25.124436140060425,21.98,10.2,8.07,25.53
25.13408398628235,30.06,8.88,8.64,32.51
25.14541792869568,38.74,5.51,8.51,40.04
25.174299955368042,45.37,3.14,11.12,46.81
25.17667317390442,48.97,2.87,17.4,52.04
25.1785089969635,50.36,3.43,23.9,55.84
25.18408989906311,52.01,1.95,29.39,59.77
25.19485306739807,54.04,-2.17,31.3,62.48
25.20441699028015,56.21,-8.11,29.53,64.01
25.21456003189087,55.74,-14.07,25.21,62.77
25.224982976913452,51.41,-16.2,19.5,57.32
25.23453688621521,44.02,-14.25,14.65,48.53
25.244704961776733,36.1,-11.21,9.93,39.08
25.274765968322754,28.79,-8.06,6.04,30.5
25.27708101272583,22.34,-4.62,3.16,23.03
25.27886414527893,17.71,-1.82,1.11,17.83
25.284954071044922,14.58,0.14,-0.61,14.59
25.294925928115845,13.47,1.65,-1.82,13.69
25.305757999420166,12.61,2.93,-3.2,13.33
25.315398931503296,11.73,4.06,-4.6,13.23
25.32544493675232,12.03,3.8,-4.77,13.48
25.334832906723022,13.38,1.43,-4.05,14.05
25.345739126205444,15.04,-1.97,-2.76,15.41
25.37673592567444,16.13,-5.47,-0.51,17.03
25.379085063934326,16.89,-9.18,2.12,19.34
25.38093400001526,16.59,-12.54,4.35,21.24
25.38704514503479,15.63,-14.07,5.75,21.8
25.395313024520874,15.48,-15.17,5.91,22.46
25.405475854873657,16.49,-17.52,4.63,24.5
25.415248155593872,18.09,-20.7,2.57,27.61
25.42597198486328,19.74,-24.2,0.29,31.23
25.43616509437561,20.85,-27.46,-2.21,34.54
25.445421934127808,21.37,-30.34,-4.76,37.41
25.476030111312866,21.45,-32.83,-6.94,39.82
25.478271007537842,21.17,-34.88,-8.49,41.67
25.479971170425415,20.7,-36.46,-9.12,42.9
25.48598885536194,19.85,-37.57,-9.0,43.43
25.495632886886597,19.08,-38.3,-8.3,43.58
25.506521940231323,18.41,-38.81,-7.33,43.57
25.515979051589966,18.11,-39.27,-6.34,43.7
25.5261070728302,18.33,-39.87,-5.69,44.24
25.536504983901978,18.64,-40.49,-6.11,44.99
25.546404123306274,18.13,-41.02,-7.59,45.48
25.5768940448761,16.2,-40.85,-9.32,44.92
25.57921814918518,12.85,-40.59,-10.14,43.76
25.581115007400513,6.7,-39.75,-9.96,41.52
25.586652040481567,-1.55,-36.21,-8.63,37.25
25.596107006072998,-10.15,-29.95,-6.98,32.38
25.605444192886353,-16.92,-25.66,-5.92,31.3
25.615756034851074,-20.98,-26.59,-4.57,34.17
25.62688398361206,-23.99,-30.43,0.47,38.75
25.638116121292114,-28.27,-31.49,11.7,43.9
25.647017002105713,-35.7,-28.05,24.86,51.76
25.677830934524536,-43.54,-23.69,33.91,60.05
25.68018102645874,-48.06,-22.52,37.47,64.96
25.682061910629272,-47.95,-23.26,36.25,64.45
25.68688988685608,-43.39,-24.55,31.51,58.97
25.697190046310425,-36.52,-25.0,24.76,50.71
25.706855058670044,-28.57,-25.46,18.07,42.31
25.717019081115723,-20.62,-26.62,12.03,35.75
25.726603984832764,-13.76,-27.27,6.91,31.31
25.736404180526733,-7.59,-27.99,2.84,29.13
25.746782064437866,-2.01,-29.34,-0.03,29.4
25.777493000030518,2.96,-30.46,-2.24,30.68
25.779680013656616,7.03,-30.92,-4.3,31.99
25.781398057937622,10.04,-30.89,-5.84,33.0
25.787492990493774,12.04,-30.6,-6.27,33.47
25.797547101974487,13.03,-30.03,-5.75,33.23
25.80719494819641,13.3,-29.32,-4.47,32.5
25.817965984344482,13.27,-28.69,-2.88,31.74
25.828727960586548,13.1,-28.45,-1.16,31.34
25.837158918380737,13.48,-28.7,0.52,31.71
25.847615957260132,14.25,-28.96,1.98,32.33
25.882242918014526,14.65,-28.99,2.49,32.57
25.8846218585968,14.38,-28.75,1.91,32.2
25.88675093650818,13.67,-28.38,0.94,31.51
25.889597177505493,12.73,-27.8,-0.01,30.57
25.897327184677124,11.78,-27.14,-1.08,29.6
25.908239126205444,11.42,-26.94,-1.98,29.32
25.9184889793396,11.99,-26.92,-2.67,29.59
25.927613973617554,13.13,-27.22,-3.64,30.43
25.93929696083069,14.36,-27.57,-4.65,31.43
25.947808027267456,15.52,-26.88,-5.08,31.45
25.976047039031982,16.0,-25.12,-5.15,30.22
25.97834086418152,15.86,-23.15,-5.17,28.53
25.97968888282776,14.84,-21.25,-5.22,26.43
25.98868203163147,14.07,-19.56,-4.13,24.44
25.999842882156372,14.19,-20.81,-0.45,25.19
26.00811219215393,11.74,-15.71,3.75,19.96
26.019814014434814,12.78,-7.59,8.49,17.11
26.02815318107605,17.79,-2.05,12.97,22.11
26.038254976272583,23.66,1.6,15.18,28.15
26.0484459400177,28.07,0.7,16.85,32.74
26.078163862228394,30.06,-1.95,17.55,34.86
26.080554008483887,29.9,-2.03,18.49,35.21
26.082431077957153,29.87,0.82,18.88,35.34
26.08859896659851,33.28,4.09,16.27,37.26
26.10000205039978,42.23,7.83,13.23,44.94
26.108819007873535,57.19,11.1,13.82,59.87
26.11871886253357,71.64,9.38,13.7,73.53
26.130203008651733,73.29,4.07,8.35,73.87
26.138764142990112,72.95,-1.75,1.9,72.99
26.149289846420288,71.48,-3.89,-0.95,71.59
26.18072819709778,59.58,-0.98,1.38,59.6
26.183039903640747,43.24,3.81,3.48,43.54
26.184853076934814,30.26,7.08,5.17,31.5
26.189039945602417,22.69,6.6,7.29,24.72
26.203692197799683,18.43,4.08,8.51,20.7
26.20899510383606,14.83,3.35,9.76,18.06
26.219102144241333,10.98,4.71,10.8,16.1
26.228543043136597,8.32,6.81,10.94,15.33
26.23902201652527,8.0,8.24,9.95,15.19
26.248908042907715,9.74,8.48,8.03,15.2
26.279309034347534,12.2,7.52,5.22,15.25
26.281687021255493,14.6,4.63,2.06,15.45
26.28343892097473,16.26,0.63,-0.05,16.27
26.28954815864563,16.81,-2.65,-0.08,17.01
26.304455995559692,16.91,-4.91,1.11,17.64
26.309651136398315,16.18,-7.17,2.04,17.81
26.321393966674805,15.1,-9.72,2.53,18.13
26.32989192008972,14.79,-12.17,2.86,19.36
26.34135603904724,14.96,-14.54,2.96,21.07
26.349918127059937,15.5,-17.33,2.79,23.41
26.378283977508545,16.2,-20.31,2.58,26.1
26.380626916885376,17.05,-22.98,2.27,28.7
26.382521867752075,17.69,-25.54,1.55,31.1
26.390177011489868,17.95,-27.87,0.58,33.15
26.401565074920654,18.1,-29.99,-0.41,35.03
26.410083055496216,18.19,-31.94,-1.2,36.77
26.420554876327515,17.9,-33.93,-1.48,38.39
26.43024706840515,17.21,-36.03,-1.24,39.94
26.440388917922974,16.41,-37.94,-0.61,41.34
26.452017068862915,16.09,-40.23,0.18,43.32
26.481323957443237,15.89,-42.75,0.99,45.61
26.48359990119934,15.06,-44.5,1.13,46.99
26.485481023788452,13.16,-45.18,0.56,47.06
26.49073600769043,9.78,-44.99,-0.52,46.04
26.501442193984985,4.46,-43.15,-1.98,43.42
26.512176990509033,-2.56,-38.97,-3.66,39.22
26.520507097244263,-11.11,-32.19,-5.44,34.48
26.530394077301025,-19.67,-22.9,-7.69,31.15
26.54076600074768,-28.43,-17.36,-11.53,35.25
26.551817178726196,-30.62,-21.65,-12.03,39.38
26.58138918876648,-28.32,-31.8,-1.96,42.62
26.583693027496338,-31.02,-37.39,16.96,51.45
26.58558702468872,-39.85,-33.77,36.28,63.59
26.591021060943604,-43.97,-28.93,49.67,72.36
26.602216005325317,-39.04,-28.97,52.86,71.81
26.612537145614624,-31.33,-27.98,47.95,63.74
26.621129989624023,-23.63,-25.89,37.88,51.6
26.63173198699951,-15.03,-25.7,25.71,39.33
26.640954971313477,-6.38,-26.26,14.55,30.69
26.650881052017212,0.56,-26.25,6.16,26.96
26.682953119277954,5.74,-26.42,1.11,27.05
26.68505311012268,8.98,-27.26,-1.41,28.73
26.687180042266846,10.49,-28.05,-2.64,30.06
26.69090485572815,10.72,-28.29,-2.95,30.39
26.702204942703247,10.19,-28.22,-2.63,30.11
26.71234107017517,9.57,-27.99,-2.47,29.68
26.72322106361389,9.04,-28.0,-2.81,29.55
26.731683015823364,9.18,-28.29,-3.29,29.92
26.743293046951294,9.55,-28.56,-3.99,30.37
26.751882076263428,9.95,-28.48,-5.06,30.58
26.782685041427612,10.32,-28.09,-5.98,30.51
26.784811973571777,10.71,-27.54,-6.51,30.25
26.78681206703186,10.97,-26.84,-6.79,29.77
26.792129039764404,10.98,-25.98,-7.07,29.07
26.803539991378784,10.63,-25.03,-7.18,28.12
26.81202507019043,10.15,-24.04,-7.17,27.06
26.823567152023315,9.7,-23.43,-7.09,26.33
26.832442045211792,9.49,-23.39,-6.87,26.16
26.842297077178955,9.65,-23.57,-6.46,26.27
26.853718996047974,9.85,-23.51,-5.93,26.17
26.8841769695282,10.18,-22.93,-5.53,25.69
26.886404037475586,11.34,-22.49,-5.01,25.68
26.888162851333618,12.67,-22.14,-4.59,25.91
26.892415046691895,14.0,-21.33,-3.97,25.82
26.90429401397705,15.46,-19.8,-2.03,25.2
26.91274619102478,16.33,-17.31,0.28,23.79
26.923142194747925,16.12,-13.72,1.88,21.25
26.934147119522095,15.57,-9.87,3.03,18.68
26.943001985549927,15.54,-6.83,3.49,17.32
26.953634023666382,16.5,-4.81,4.34,17.72
26.98221516609192,18.68,-2.56,6.63,19.98
26.984494924545288,21.81,0.26,9.11,23.63
26.98608899116516,25.33,2.55,11.23,27.82
26.992910146713257,30.49,4.28,12.52,33.23
27.003830194473267,38.85,6.71,13.83,41.78
27.014504194259644,52.17,10.13,17.8,56.04
27.023421049118042,65.89,13.17,19.15,69.86
27.03438687324524,73.21,10.84,15.38,75.58
27.043154001235962,73.2,0.56,13.77,74.48
27.053927183151245,73.1,-12.06,21.19,77.05
27.082770109176636,68.59,-16.01,27.93,75.76
27.085047006607056,45.97,-8.58,30.82,56.0
27.086952924728394,28.2,-2.46,29.91,41.18
27.09333896636963,21.22,-2.03,25.14,32.96
27.105467081069946,19.18,-4.01,19.33,27.52
27.115110158920288,17.3,-4.59,14.66,23.13
27.123368978500366,13.43,-2.38,9.64,16.7
27.13297390937805,7.11,2.26,4.28,8.6
27.143431901931763,3.48,7.03,0.21,7.84
27.153680086135864,3.63,9.41,-2.37,10.36
27.183674097061157,6.33,9.64,-3.79,12.13
27.1857590675354,10.02,8.56,-4.57,13.94
27.18759298324585,14.02,6.38,-4.71,16.1
27.193840980529785,17.7,2.91,-4.39,18.46
27.20579504966736,20.11,-1.45,-3.66,20.49
27.215093851089478,21.68,-5.64,-1.8,22.47
27.225632905960083,21.82,-9.13,0.68,23.66
27.234076023101807,20.36,-11.8,2.46,23.66
27.24568819999695,18.36,-14.23,3.53,23.49
27.25446915626526,16.76,-16.66,3.93,23.95
27.283148050308228,16.0,-18.65,3.86,24.87
27.285418033599854,16.65,-20.29,3.5,26.47
27.287598848342896,18.58,-22.36,2.5,29.17
27.294512033462524,21.08,-25.61,0.7,33.17
27.306090116500854,23.16,-29.24,-1.42,37.32
27.31473207473755,24.34,-32.42,-3.19,40.66
27.326122045516968,24.9,-34.79,-4.7,43.04
27.33472514152527,25.41,-37.27,-6.01,45.5
27.34580707550049,25.62,-39.45,-7.23,47.59
27.35638403892517,24.98,-40.88,-8.59,48.67
27.384464025497437,23.58,-41.61,-9.75,48.81
27.38687014579773,22.32,-41.7,-10.18,48.38
27.388803005218506,21.32,-41.91,-10.67,48.21
27.395133018493652,20.22,-42.79,-11.66,48.74
27.405813932418823,18.58,-44.15,-13.05,49.64
27.415029048919678,15.84,-45.41,-14.05,50.1
27.42609190940857,10.92,-45.66,-14.52,49.14
27.43675398826599,1.27,-41.9,-14.81,44.45
27.44520902633667,-13.69,-31.35,-16.39,37.93
27.4566171169281,-28.87,-18.38,-17.06,38.24
27.485807180404663,-34.22,-17.97,-15.07,41.48
27.487982034683228,-31.89,-31.22,-11.11,45.99
27.489801168441772,-36.13,-38.28,-1.52,52.65
27.495400190353394,-48.99,-31.0,14.44,59.74
27.50608515739441,-53.48,-23.13,26.5,64.01
27.517101049423218,-47.18,-23.7,28.87,60.17
27.525684118270874,-40.35,-24.67,24.73,53.36
27.536783933639526,-36.56,-22.97,19.52,47.38
27.54718804359436,-32.28,-22.75,13.87,41.85
27.555763959884644,-26.71,-25.41,8.55,37.84
27.5869300365448,-20.69,-28.04,4.52,35.13
27.589096069335938,-16.27,-30.03,2.26,34.22
27.590911149978638,-12.74,-31.85,0.49,34.3
27.59622097015381,-8.22,-33.23,-1.47,34.26
27.60615611076355,-2.56,-34.18,-3.71,34.47
27.61739706993103,2.94,-34.6,-5.93,35.22
27.6270911693573,6.87,-34.61,-7.55,36.08
27.63623309135437,9.16,-34.19,-8.28,36.35
27.647752046585083,10.33,-33.0,-8.24,35.54
27.6562979221344,11.01,-31.11,-8.0,33.95
27.686143159866333,11.67,-29.55,-8.02,32.76
27.688337087631226,12.83,-28.89,-7.73,32.54
27.69017505645752,14.15,-28.62,-7.25,32.73
27.69634699821472,15.11,-28.62,-6.96,33.1
27.7081081867218,15.58,-28.83,-7.12,33.53
27.71661114692688,15.34,-28.54,-7.49,33.25
27.72747802734375,14.34,-27.82,-7.9,32.27
27.736824989318848,12.81,-26.71,-8.43,30.79
27.747575044631958,11.91,-25.65,-8.86,29.63
27.758249044418335,11.85,-25.34,-9.29,29.47
27.786365032196045,11.94,-25.44,-9.56,29.68
27.78854203224182,12.32,-25.11,-9.61,29.57
27.790362119674683,12.76,-24.03,-9.94,28.96
27.796926021575928,13.3,-22.75,-10.31,28.29
27.807900190353394,14.65,-21.99,-10.4,28.39
27.817110061645508,16.61,-22.32,-9.75,29.48
27.82754397392273,18.45,-23.15,-8.66,30.84
27.837815046310425,18.26,-23.21,-6.68,30.27
27.84744620323181,16.59,-20.82,-2.99,26.78
27.85867190361023,14.45,-17.12,1.9,22.48
27.888599157333374,14.21,-13.79,6.19,20.74
27.890686988830566,16.87,-13.19,10.01,23.63
27.892505884170532,20.68,-14.25,13.54,28.53
27.897446870803833,24.21,-13.25,15.68,31.74
27.90894103050232,27.14,-10.91,17.13,33.89
27.917530059814453,30.99,-8.96,17.89,36.88
27.92802119255066,36.05,-8.13,17.12,40.72
27.939228057861328,40.35,-8.06,16.76,44.42
27.947649002075195,42.63,-6.84,16.39,46.18
27.95857000350952,44.76,-4.78,14.74,47.36
27.98875904083252,48.76,-4.41,12.78,50.59
27.990913152694702,53.88,-4.77,11.57,55.31
27.992719888687134,55.39,-1.5,11.18,56.52
27.998046159744263,53.47,4.84,12.15,55.04
28.008093118667603,51.5,9.66,14.48,54.36
28.019471883773804,50.01,10.98,16.88,53.91
28.022505044937134,49.86,10.93,17.03,53.8
28.030107021331787,47.59,8.36,17.83,51.5
28.04017996788025,40.87,4.74,18.78,45.22
28.050045013427734,29.83,4.0,19.8,36.02
28.078869104385376,18.11,6.18,21.36,28.67
28.081286191940308,9.58,8.4,22.08,25.49
28.083163022994995,5.82,8.83,21.35,23.82
28.09037184715271,6.0,7.63,19.4,21.69
28.100347995758057,7.43,6.52,16.9,19.57
28.11041808128357,9.12,6.0,14.43,18.09
28.120445013046265,11.45,5.07,12.09,17.4
28.13084602355957,14.52,3.41,9.54,17.7
28.140737056732178,17.14,1.07,6.96,18.53
28.15045714378357,18.54,-1.81,4.42,19.14
28.179354906082153,19.08,-4.24,2.54,19.7
28.181657075881958,19.12,-6.25,1.24,20.15
28.183601140975952,19.04,-8.46,0.17,20.83
28.190641164779663,18.64,-11.04,-1.41,21.7
28.200647115707397,18.43,-13.59,-3.61,23.18
28.21076512336731,19.41,-16.04,-5.32,25.73
28.22079110145569,20.91,-18.7,-6.34,28.75
28.230802059173584,22.19,-21.78,-6.81,31.82
28.241180181503296,22.62,-25.01,-6.78,34.39
28.251464128494263,21.97,-27.53,-6.52,35.82
28.281727075576782,20.4,-28.9,-6.08,35.89
28.284178018569946,18.77,-29.33,-5.48,35.25
28.28581690788269,18.01,-29.47,-4.97,34.89
28.29103708267212,17.84,-29.85,-4.87,35.11
28.30524706840515,17.86,-30.44,-5.1,35.65
28.311086893081665,17.86,-30.94,-5.5,36.14
28.321734189987183,17.61,-31.76,-5.59,36.74
28.331609964370728,16.98,-33.0,-5.23,37.47
28.341787099838257,16.46,-33.99,-4.72,38.05
28.35178017616272,16.56,-34.54,-4.91,38.61
28.38031005859375,16.5,-35.39,-6.51,39.58
28.382599115371704,14.63,-36.22,-8.73,40.02
28.3840229511261,9.63,-35.15,-11.47,38.2
28.391409158706665,-1.68,-31.18,-14.35,34.36
28.405412912368774,-18.09,-23.94,-14.96,33.52
28.411402940750122,-32.9,-17.21,-11.18,38.77
28.421658039093018,-39.58,-22.14,-7.01,45.89
28.432093858718872,-40.89,-36.3,-3.43,54.78
28.441715002059937,-47.95,-35.8,9.55,60.59
28.452164888381958,-52.44,-27.74,22.98,63.62
28.482403993606567,-45.24,-31.21,26.31,60.93
28.484766006469727,-35.48,-34.14,24.11,54.82
